Block_Nr,Block_Name,Task_Nr,Task_Name,Trial_Nr,Trial_Id,ab_pitch,age_range,answer,best_instru,choice,clip,Condition_Id,correct_incorrect_p_3,response,scramble_p_3,correct_incorrect_practice_p,decision,earworm,errorCount,exampleCount,familiarity,fileArray,filePick,Frequenc,genre,genre_3,genre_4,hour,imagery,Instr,isCorrect,listen_time,music_theory,name_instru,nrErrors,num_instru,participant_choice,participant_choice_2,participant_choice2,participant_spacePress,participant_spacePress2,played_notplayed,practice_catseg_scramble,relative_pitch,Unnamed: 47,responseTime,scramble_level,Unnamed: 50,set1response,soundName,strategy,time_atClipStart1,toneSequence,always_fullscreen,completed,crowdsourcing_code,crowdsourcing_subj_id,end_time,exp_subject_id,group_name,rec_session_id,session_name,session_nr,start_time,subj_counter_global,subj_counter_per_group,subject_code,time_delay_offset,time_measure_std,unlocked
13,Post-Survey,1,Post-Survey,1,1,No,"Voice age 18-26, violin age 5-18",,voice,,,1,,,,,,4.0,,,1.0,,,Weekly,rock,indie,opera,Monthly,4.0,2-3 Days/Week,,Monthly,2-3 Days/Week,"Voice, violin",,Biweekly,,,,,,option_1,,Yes,,,,,,,I pushed the space button when i hear a change in harmony,,,,yes,,,2021-12-25T02:09:26.000Z,342256,group_9,378327,Prediction3/Open2,1,2021-12-25T01:22:07.000Z,,,,not measured,,True
11,OpenEndedSeg_2,4,OpenEndedSeg_2,1,14,,,,,,,4,,,,,,,,,,,,,,,,,,,,,,,,,,,,"""times=1640396881951---values=26633""","""times=1640396855258;1640396942514;1640396953594;1640396962880---values=;26323;37403;46689""",,,,,,1B,,,,,,,,yes,,,2021-12-25T02:09:26.000Z,342256,group_9,378327,Prediction3/Open2,1,2021-12-25T01:22:07.000Z,,,,not measured,,True
11,OpenEndedSeg_2,4,OpenEndedSeg_2,2,4,,,,,,,1,,,,,,,,,,,,,,,,,,,,,,,,,,,,"""times=1640396977574;1640396981783---values=;4208""","""times=1640396977574;1640397069492;1640397093409---values=;29242;53159""",,,,,,intact,,,,,,,,yes,,,2021-12-25T02:09:26.000Z,342256,group_9,378327,Prediction3/Open2,1,2021-12-25T01:22:07.000Z,,,,not measured,,True
11,OpenEndedSeg_2,4,OpenEndedSeg_2,3,3,,,,,,,1,,,,,,,,,,,,,,,,,,,,,,,,,,,,"""times=1640397103371;1640397119613;1640397145070---values=;16204;41661""","""times=1640397103371;1640397171171;1640397195101---values=;17257;41187""",,,,,,intact,,,,,,,,yes,,,2021-12-25T02:09:26.000Z,342256,group_9,378327,Prediction3/Open2,1,2021-12-25T01:22:07.000Z,,,,not measured,,True
11,OpenEndedSeg_2,4,OpenEndedSeg_2,4,7,,,,,,,2,,,,,,,,,,,,,,,,,,,,,,,,,,,,"""times=1640397204913;1640397221392;1640397229260;1640397241844---values=;16479;24347;36931""","""times=1640397204913;1640397280326;1640397292318;1640397300473---values=;16124;28116;36271""",,,,,,8B,,,,,,,,yes,,,2021-12-25T02:09:26.000Z,342256,group_9,378327,Prediction3/Open2,1,2021-12-25T01:22:07.000Z,,,,not measured,,True
11,OpenEndedSeg_2,4,OpenEndedSeg_2,5,8,,,,,,,2,,,,,,,,,,,,,,,,,,,,,,,,,,,,"""times=1640397323890;1640397339339;1640397385095;1640397388208---values=;15392;61148;64261""","""times=1640397323890;1640397404148;1640397424407;1640397433766;1640397441825---values=;13013;33272;42631;50690""",,,,,,8B,,,,,,,,yes,,,2021-12-25T02:09:26.000Z,342256,group_9,378327,Prediction3/Open2,1,2021-12-25T01:22:07.000Z,,,,not measured,,True
11,OpenEndedSeg_2,4,OpenEndedSeg_2,6,13,,,,,,,4,,,,,,,,,,,,,,,,,,,,,,,,,,,,"""times=1640397458821;1640397479172;1640397485725;1640397492458;1640397504011---values=;20303;26856;33589;45142""","""times=1640397458821;1640397529870;1640397539678;1640397546341;1640397553119;1640397558959;1640397568672---values=;10169;19977;26640;33418;39258;48971""",,,,,,1B,,,,,,,,yes,,,2021-12-25T02:09:26.000Z,342256,group_9,378327,Prediction3/Open2,1,2021-12-25T01:22:07.000Z,,,,not measured,,True
11,OpenEndedSeg_2,4,OpenEndedSeg_2,7,10,,,,,,,3,,,,,,,,,,,,,,,,,,,,,,,,,,,,"""times=1640397581022;1640397593577;1640397597585;1640397606314---values=;12467;16475;25204""","""times=1640397581022;1640397653293;1640397656350;1640397660198;1640397667195;1640397668622;1640397676078;1640397680350;1640397688271---values=;9427;12484;16332;23329;24756;32212;36484;44404""",,,,,,2B,,,,,,,,yes,,,2021-12-25T02:09:26.000Z,342256,group_9,378327,Prediction3/Open2,1,2021-12-25T01:22:07.000Z,,,,not measured,,True
11,OpenEndedSeg_2,4,OpenEndedSeg_2,8,9,,,,,,,3,,,,,,,,,,,,,,,,,,,,,,,,,,,,"""times=1640397707116---values=""","""times=1640397707116;1640397774373;1640397780346;1640397798207;1640397803472;1640397810259---values=;8465;14438;32299;37564;44351""",,,,,,2B,,,,,,,,yes,,,2021-12-25T02:09:26.000Z,342256,group_9,378327,Prediction3/Open2,1,2021-12-25T01:22:07.000Z,,,,not measured,,True
11,OpenEndedSeg_2,3,Ready?,1,1,,,,,,,1,,,,,,,,,,,,,,,,,,,,,,,,,,,,,,,,,,,,,,,,,,,yes,,,2021-12-25T02:09:26.000Z,342256,group_9,378327,Prediction3/Open2,1,2021-12-25T01:22:07.000Z,,,,not measured,,True
11,OpenEndedSeg_2,2,Practice_OpenEnded,1,1,,,,,,,1,,,,,,,,,,,,,,,,,,,,,,,,,,,,,"""times=1640396795966;1640396801684---values=24665;30383""",,,,,,,,,,,,,,yes,,,2021-12-25T02:09:26.000Z,342256,group_9,378327,Prediction3/Open2,1,2021-12-25T01:22:07.000Z,,,,not measured,,True
11,OpenEndedSeg_2,1,Instructions_Open,1,1,,,,,,,1,,,,,,,,,,,,,,,,,,,,,,,,,,,,,,,,,,,,,,,,,,,yes,,,2021-12-25T02:09:26.000Z,342256,group_9,378327,Prediction3/Open2,1,2021-12-25T01:22:07.000Z,,,,not measured,,True
9,Prediction3,4,Prediction_3,4,57,,,,,Second,4_1B_prediction_6.mp3,6,incorrect_left,Correct,1B,,,,,,,,,,,,,,,,,,,,,,,,,,,,,,,3277.0,,,,,,,,,yes,,,2021-12-25T02:09:26.000Z,342256,group_9,378327,Prediction3/Open2,1,2021-12-25T01:22:07.000Z,,,,not measured,,True
9,Prediction3,4,Prediction_3,7,43,,,,,Second,3_1B_prediction_8.mp3,5,correct_left,Incorrect,1B,,,,,,,,,,,,,,,,,,,,,,,,,,,,,,,1119.0,,,,,,,,,yes,,,2021-12-25T02:09:26.000Z,342256,group_9,378327,Prediction3/Open2,1,2021-12-25T01:22:07.000Z,,,,not measured,,True
9,Prediction3,4,Prediction_3,8,44,,,,,First,3_1B_prediction_9.mp3,5,correct_left,Correct,1B,,,,,,,,,,,,,,,,,,,,,,,,,,,,,,,1129.0,,,,,,,,,yes,,,2021-12-25T02:09:26.000Z,342256,group_9,378327,Prediction3/Open2,1,2021-12-25T01:22:07.000Z,,,,not measured,,True
9,Prediction3,4,Prediction_3,11,45,,,,,Second,3_1B_prediction_10.mp3,5,correct_left,Incorrect,1B,,,,,,,,,,,,,,,,,,,,,,,,,,,,,,,1306.0,,,,,,,,,yes,,,2021-12-25T02:09:26.000Z,342256,group_9,378327,Prediction3/Open2,1,2021-12-25T01:22:07.000Z,,,,not measured,,True
9,Prediction3,4,Prediction_3,14,56,,,,,,4_1B_prediction_5.mp3,6,incorrect_left,,1B,,,,,,,,,,,,,,,,,,,,,,,,,,,,,,,,,,,,,,,,yes,,,2021-12-25T02:09:26.000Z,342256,group_9,378327,Prediction3/Open2,1,2021-12-25T01:22:07.000Z,,,,not measured,,True
9,Prediction3,4,Prediction_3,15,49,,,,,First,4_1B_prediction_8.mp3,5,correct_left,Correct,1B,,,,,,,,,,,,,,,,,,,,,,,,,,,,,,,1213.0,,,,,,,,,yes,,,2021-12-25T02:09:26.000Z,342256,group_9,378327,Prediction3/Open2,1,2021-12-25T01:22:07.000Z,,,,not measured,,True
9,Prediction3,4,Prediction_3,17,50,,,,,Second,4_8B_prediction_9.mp3,5,correct_left,Incorrect,1B,,,,,,,,,,,,,,,,,,,,,,,,,,,,,,,3275.0,,,,,,,,,yes,,,2021-12-25T02:09:26.000Z,342256,group_9,378327,Prediction3/Open2,1,2021-12-25T01:22:07.000Z,,,,not measured,,True
9,Prediction3,4,Prediction_3,25,42,,,,,First,3_1B_prediction_7.mp3,5,correct_left,Correct,1B,,,,,,,,,,,,,,,,,,,,,,,,,,,,,,,585.0,,,,,,,,,yes,,,2021-12-25T02:09:26.000Z,342256,group_9,378327,Prediction3/Open2,1,2021-12-25T01:22:07.000Z,,,,not measured,,True
9,Prediction3,4,Prediction_3,26,48,,,,,Second,4_1B_prediction_7.mp3,5,correct_left,Incorrect,1B,,,,,,,,,,,,,,,,,,,,,,,,,,,,,,,1317.0,,,,,,,,,yes,,,2021-12-25T02:09:26.000Z,342256,group_9,378327,Prediction3/Open2,1,2021-12-25T01:22:07.000Z,,,,not measured,,True
9,Prediction3,4,Prediction_3,27,41,,,,,Second,3_1B_prediction_6.mp3,5,correct_left,Incorrect,1B,,,,,,,,,,,,,,,,,,,,,,,,,,,,,,,1181.0,,,,,,,,,yes,,,2021-12-25T02:09:26.000Z,342256,group_9,378327,Prediction3/Open2,1,2021-12-25T01:22:07.000Z,,,,not measured,,True
9,Prediction3,4,Prediction_3,1,22,,,,,Second,3_2B_prediction_7.mp3,3,correct_left,Incorrect,2B,,,,,,,,,,,,,,,,,,,,,,,,,,,,,,,1805.0,,,,,,,,,yes,,,2021-12-25T02:09:26.000Z,342256,group_9,378327,Prediction3/Open2,1,2021-12-25T01:22:07.000Z,,,,not measured,,True
9,Prediction3,4,Prediction_3,2,25,,,,,First,3_2B_prediction_10.mp3,3,correct_left,Correct,2B,,,,,,,,,,,,,,,,,,,,,,,,,,,,,,,1459.0,,,,,,,,,yes,,,2021-12-25T02:09:26.000Z,342256,group_9,378327,Prediction3/Open2,1,2021-12-25T01:22:07.000Z,,,,not measured,,True
9,Prediction3,4,Prediction_3,5,26,,,,,,4_2B_prediction_5.mp3,3,correct_left,,2B,,,,,,,,,,,,,,,,,,,,,,,,,,,,,,,,,,,,,,,,yes,,,2021-12-25T02:09:26.000Z,342256,group_9,378327,Prediction3/Open2,1,2021-12-25T01:22:07.000Z,,,,not measured,,True
9,Prediction3,4,Prediction_3,10,39,,,,,First,4_2B_prediction_8.mp3,4,incorrect_left,Incorrect,2B,,,,,,,,,,,,,,,,,,,,,,,,,,,,,,,1078.0,,,,,,,,,yes,,,2021-12-25T02:09:26.000Z,342256,group_9,378327,Prediction3/Open2,1,2021-12-25T01:22:07.000Z,,,,not measured,,True
9,Prediction3,4,Prediction_3,13,38,,,,,First,4_2B_prediction_7.mp3,4,incorrect_left,Incorrect,2B,,,,,,,,,,,,,,,,,,,,,,,,,,,,,,,1033.0,,,,,,,,,yes,,,2021-12-25T02:09:26.000Z,342256,group_9,378327,Prediction3/Open2,1,2021-12-25T01:22:07.000Z,,,,not measured,,True
9,Prediction3,4,Prediction_3,16,37,,,,,Second,4_2B_prediction_6.mp3,4,incorrect_left,Correct,2B,,,,,,,,,,,,,,,,,,,,,,,,,,,,,,,1398.0,,,,,,,,,yes,,,2021-12-25T02:09:26.000Z,342256,group_9,378327,Prediction3/Open2,1,2021-12-25T01:22:07.000Z,,,,not measured,,True
9,Prediction3,4,Prediction_3,18,34,,,,,Second,3_2B_prediction_9.mp3,4,incorrect_left,Correct,2B,,,,,,,,,,,,,,,,,,,,,,,,,,,,,,,1088.0,,,,,,,,,yes,,,2021-12-25T02:09:26.000Z,342256,group_9,378327,Prediction3/Open2,1,2021-12-25T01:22:07.000Z,,,,not measured,,True
9,Prediction3,4,Prediction_3,22,31,,,,,Second,3_2B_prediction_6.mp3,4,incorrect_left,Correct,2B,,,,,,,,,,,,,,,,,,,,,,,,,,,,,,,1018.0,,,,,,,,,yes,,,2021-12-25T02:09:26.000Z,342256,group_9,378327,Prediction3/Open2,1,2021-12-25T01:22:07.000Z,,,,not measured,,True
9,Prediction3,4,Prediction_3,23,33,,,,,First,3_2B_prediction_8.mp3,4,incorrect_left,Incorrect,2B,,,,,,,,,,,,,,,,,,,,,,,,,,,,,,,1561.0,,,,,,,,,yes,,,2021-12-25T02:09:26.000Z,342256,group_9,378327,Prediction3/Open2,1,2021-12-25T01:22:07.000Z,,,,not measured,,True
9,Prediction3,4,Prediction_3,28,30,,,,,Second,4_2B_prediction_9.mp3,3,correct_left,Incorrect,2B,,,,,,,,,,,,,,,,,,,,,,,,,,,,,,,1015.0,,,,,,,,,yes,,,2021-12-25T02:09:26.000Z,342256,group_9,378327,Prediction3/Open2,1,2021-12-25T01:22:07.000Z,,,,not measured,,True
9,Prediction3,4,Prediction_3,3,17,,,,,Second,4_8B_prediction_6.mp3,2,incorrect_left,Correct,8B,,,,,,,,,,,,,,,,,,,,,,,,,,,,,,,1369.0,,,,,,,,,yes,,,2021-12-25T02:09:26.000Z,342256,group_9,378327,Prediction3/Open2,1,2021-12-25T01:22:07.000Z,,,,not measured,,True
9,Prediction3,4,Prediction_3,6,11,,,,,Second,3_8B_prediction_6.mp3,2,incorrect_left,Correct,8B,,,,,,,,,,,,,,,,,,,,,,,,,,,,,,,1193.0,,,,,,,,,yes,,,2021-12-25T02:09:26.000Z,342256,group_9,378327,Prediction3/Open2,1,2021-12-25T01:22:07.000Z,,,,not measured,,True
9,Prediction3,4,Prediction_3,9,16,,,,,Second,4_8B_prediction_5.mp3,2,incorrect_left,Correct,8B,,,,,,,,,,,,,,,,,,,,,,,,,,,,,,,1588.0,,,,,,,,,yes,,,2021-12-25T02:09:26.000Z,342256,group_9,378327,Prediction3/Open2,1,2021-12-25T01:22:07.000Z,,,,not measured,,True
9,Prediction3,4,Prediction_3,12,9,,,,,First,4_8B_prediction_8.mp3,1,correct_left,Correct,8B,,,,,,,,,,,,,,,,,,,,,,,,,,,,,,,1371.0,,,,,,,,,yes,,,2021-12-25T02:09:26.000Z,342256,group_9,378327,Prediction3/Open2,1,2021-12-25T01:22:07.000Z,,,,not measured,,True
9,Prediction3,4,Prediction_3,19,18,,,,,Second,4_8B_prediction_7.mp3,2,incorrect_left,Correct,8B,,,,,,,,,,,,,,,,,,,,,,,,,,,,,,,922.0,,,,,,,,,yes,,,2021-12-25T02:09:26.000Z,342256,group_9,378327,Prediction3/Open2,1,2021-12-25T01:22:07.000Z,,,,not measured,,True
9,Prediction3,4,Prediction_3,20,14,,,,,Second,3_8B_prediction_9.mp3,2,incorrect_left,Correct,8B,,,,,,,,,,,,,,,,,,,,,,,,,,,,,,,3067.0,,,,,,,,,yes,,,2021-12-25T02:09:26.000Z,342256,group_9,378327,Prediction3/Open2,1,2021-12-25T01:22:07.000Z,,,,not measured,,True
9,Prediction3,4,Prediction_3,21,2,,,,,Second,3_8B_prediction_7.mp3,1,correct_left,Incorrect,8B,,,,,,,,,,,,,,,,,,,,,,,,,,,,,,,1145.0,,,,,,,,,yes,,,2021-12-25T02:09:26.000Z,342256,group_9,378327,Prediction3/Open2,1,2021-12-25T01:22:07.000Z,,,,not measured,,True
9,Prediction3,4,Prediction_3,24,3,,,,,First,3_8B_prediction_8.mp3,1,correct_left,Correct,8B,,,,,,,,,,,,,,,,,,,,,,,,,,,,,,,2268.0,,,,,,,,,yes,,,2021-12-25T02:09:26.000Z,342256,group_9,378327,Prediction3/Open2,1,2021-12-25T01:22:07.000Z,,,,not measured,,True
9,Prediction3,4,Prediction_3,29,20,,,,,First,4_8B_prediction_9.mp3,2,incorrect_left,Incorrect,8B,,,,,,,,,,,,,,,,,,,,,,,,,,,,,,,2485.0,,,,,,,,,yes,,,2021-12-25T02:09:26.000Z,342256,group_9,378327,Prediction3/Open2,1,2021-12-25T01:22:07.000Z,,,,not measured,,True
9,Prediction3,4,Prediction_3,30,15,,,,,Second,3_8B_prediction_2.mp3,2,incorrect_left,Correct,8B,,,,,,,,,,,,,,,,,,,,,,,,,,,,,,,1141.0,,,,,,,,,yes,,,2021-12-25T02:09:26.000Z,342256,group_9,378327,Prediction3/Open2,1,2021-12-25T01:22:07.000Z,,,,not measured,,True
9,Prediction3,3,Ready?,1,1,,,,,,,1,,,,,,,,,,,,,,,,,,,,,,,,,,,,,,,,,,,,,,,,,,,yes,,,2021-12-25T02:09:26.000Z,342256,group_9,378327,Prediction3/Open2,1,2021-12-25T01:22:07.000Z,,,,not measured,,True
9,Prediction3,2,Practice_Prediction,1,2,,,,,First,,1,,Correct,,correct_incorrect,,,,,,,,,,,,,,,,,,,,,,,,,,,,,,1561.0,,,,,,,,,yes,,,2021-12-25T02:09:26.000Z,342256,group_9,378327,Prediction3/Open2,1,2021-12-25T01:22:07.000Z,,,,not measured,,True
9,Prediction3,2,Practice_Prediction,2,6,,,,,First,,2,,Incorrect,,incorrect_correct,,,,,,,,,,,,,,,,,,,,,,,,,,,,,,3405.0,,,,,,,,,yes,,,2021-12-25T02:09:26.000Z,342256,group_9,378327,Prediction3/Open2,1,2021-12-25T01:22:07.000Z,,,,not measured,,True
9,Prediction3,2,Practice_Prediction,3,4,,,,,Second,,2,,Correct,,incorrect_correct,,,,,,,,,,,,,,,,,,,,,,,,,,,,,,1427.0,,,,,,,,,yes,,,2021-12-25T02:09:26.000Z,342256,group_9,378327,Prediction3/Open2,1,2021-12-25T01:22:07.000Z,,,,not measured,,True
9,Prediction3,1,Instructions_Prediction,1,1,,,,,,,1,,,,,,,,,,,,,,,,,,,,,,,,,,,,,,,,,,,,,,,,,,,yes,,,2021-12-25T02:09:26.000Z,342256,group_9,378327,Prediction3/Open2,1,2021-12-25T01:22:07.000Z,,,,not measured,,True
7,HP_Screen,3,imported_HP Evaluation,1,1,,,,,,,1,,,,,,,0.0,,,,,,,,,,,,,,,,,,,,,,,,,,,,,,,,,,,,yes,,,2021-12-25T02:09:26.000Z,342256,group_9,378327,Prediction3/Open2,1,2021-12-25T01:22:07.000Z,,,,not measured,,True
7,HP_Screen,2,imported_HP Trials,1,4,,,,,,,1,,choice 3,,,,,0.0,,,"""times=;;;;;;;;;;;;;;;;;---values=;;;;;;;;;;;;;;;;;""",hp5.3.flac,,,,,,,,,,,,,,,,,,,,,,,,,,,hp5.3.flac,,,,,yes,,,2021-12-25T02:09:26.000Z,342256,group_9,378327,Prediction3/Open2,1,2021-12-25T01:22:07.000Z,,,,not measured,,True
7,HP_Screen,2,imported_HP Trials,2,5,,,,,,,1,,choice 2,,,,,0.0,,,"""times=;;;;;;;;;;;;;;;;;---values=;;;;;;;;;;;;;;;;;""",hp1.2.flac,,,,,,,,,,,,,,,,,,,,,,,,,,,hp1.2.flac,,,,,yes,,,2021-12-25T02:09:26.000Z,342256,group_9,378327,Prediction3/Open2,1,2021-12-25T01:22:07.000Z,,,,not measured,,True
7,HP_Screen,2,imported_HP Trials,3,3,,,,,,,1,,choice 2,,,,,0.0,,,"""times=;;;;;;;;;;;;;;;;;---values=;;;;;;;;;;;;;;;;;""",hp6.2.flac,,,,,,,,,,,,,,,,,,,,,,,,,,,hp6.2.flac,,,,,yes,,,2021-12-25T02:09:26.000Z,342256,group_9,378327,Prediction3/Open2,1,2021-12-25T01:22:07.000Z,,,,not measured,,True
7,HP_Screen,2,imported_HP Trials,4,1,,,,,,,1,,choice 2,,,,,0.0,,,"""times=;;;;;;;;;;;;;;;;;---values=;;;;;;;;;;;;;;;;;""",hp3.2.flac,,,,,,,,,,,,,,,,,,,,,,,,,,,hp3.2.flac,,,,,yes,,,2021-12-25T02:09:26.000Z,342256,group_9,378327,Prediction3/Open2,1,2021-12-25T01:22:07.000Z,,,,not measured,,True
7,HP_Screen,2,imported_HP Trials,5,2,,,,,,,1,,choice 1,,,,,0.0,,,"""times=;;;;;;;;;;;;;;;;;---values=;;;;;;;;;;;;;;;;;""",hp5.1.flac,,,,,,,,,,,,,,,,,,,,,,,,,,,hp5.1.flac,,,,,yes,,,2021-12-25T02:09:26.000Z,342256,group_9,378327,Prediction3/Open2,1,2021-12-25T01:22:07.000Z,,,,not measured,,True
7,HP_Screen,2,imported_HP Trials,6,6,,,,,,,1,,choice 1,,,,,0.0,,,"""times=;;;;;;;;;;;;;;;;;---values=;;;;;;;;;;;;;;;;;""",hp2.1.flac,,,,,,,,,,,,,,,,,,,,,,,,,,,hp2.1.flac,,,,,yes,,,2021-12-25T02:09:26.000Z,342256,group_9,378327,Prediction3/Open2,1,2021-12-25T01:22:07.000Z,,,,not measured,,True
7,HP_Screen,1,imported_HP Instructions,1,1,,,,,,,1,,,,,,,,2.0,,,,,,,,,,,,,,,,,,,,,,,,,,,,,,,,,,,yes,,,2021-12-25T02:09:26.000Z,342256,group_9,378327,Prediction3/Open2,1,2021-12-25T01:22:07.000Z,,,,not measured,,True
6,AP_Screen,3,imported_AP_eval,1,1,,,,,,,1,,,,,,,,,,,,,,,,,,,,,,,0.0,,,,,,,,,,,,,,,,,,,,yes,,,2021-12-25T02:09:26.000Z,342256,group_9,378327,Prediction3/Open2,1,2021-12-25T01:22:07.000Z,,,,not measured,,True
6,AP_Screen,2,imported_AP_headphone test,1,4,,,,,,,4,,,,,one,,,,,,,,,,,,,,1.0,,,,0.0,,,,,,,,,,,,,,,,,,S_I_O,,yes,,,2021-12-25T02:09:26.000Z,342256,group_9,378327,Prediction3/Open2,1,2021-12-25T01:22:07.000Z,,,,not measured,,True
6,AP_Screen,2,imported_AP_headphone test,2,3,,,,,,,3,,,,,one,,,,,,,,,,,,,,1.0,,,,0.0,,,,,,,,,,,,,,,,,,S_O_I,,yes,,,2021-12-25T02:09:26.000Z,342256,group_9,378327,Prediction3/Open2,1,2021-12-25T01:22:07.000Z,,,,not measured,,True
6,AP_Screen,2,imported_AP_headphone test,3,5,,,,,,,5,,,,,two,,,,,,,,,,,,,,1.0,,,,0.0,,,,,,,,,,,,,,,,,,O_S_I,,yes,,,2021-12-25T02:09:26.000Z,342256,group_9,378327,Prediction3/Open2,1,2021-12-25T01:22:07.000Z,,,,not measured,,True
6,AP_Screen,2,imported_AP_headphone test,4,1,,,,,,,1,,,,,three,,,,,,,,,,,,,,1.0,,,,0.0,,,,,,,,,,,,,,,,,,I_O_S,,yes,,,2021-12-25T02:09:26.000Z,342256,group_9,378327,Prediction3/Open2,1,2021-12-25T01:22:07.000Z,,,,not measured,,True
6,AP_Screen,2,imported_AP_headphone test,5,2,,,,,,,2,,,,,two,,,,,,,,,,,,,,1.0,,,,0.0,,,,,,,,,,,,,,,,,,I_S_O,,yes,,,2021-12-25T02:09:26.000Z,342256,group_9,378327,Prediction3/Open2,1,2021-12-25T01:22:07.000Z,,,,not measured,,True
6,AP_Screen,2,imported_AP_headphone test,6,6,,,,,,,6,,,,,three,,,,,,,,,,,,,,1.0,,,,0.0,,,,,,,,,,,,,,,,,,O_I_S,,yes,,,2021-12-25T02:09:26.000Z,342256,group_9,378327,Prediction3/Open2,1,2021-12-25T01:22:07.000Z,,,,not measured,,True
6,AP_Screen,1,imported_AP_instruction,1,1,,,,,,,1,,,,,,,,,,,,,,,,,,,,,,,,,,,,,,,,,,,,,,,,,,,yes,,,2021-12-25T02:09:26.000Z,342256,group_9,378327,Prediction3/Open2,1,2021-12-25T01:22:07.000Z,,,,not measured,,True
4,GenInstructPredOpen,1,InstructionsPredOpen,1,1,,,,,,,1,,,,,,,,,,,,,,,,,,,,,,,,,,,,,,,,,,,,,,,,,,,yes,,,2021-12-25T02:09:26.000Z,342256,group_9,378327,Prediction3/Open2,1,2021-12-25T01:22:07.000Z,,,,not measured,,True
2,Consent,1,Consent,1,1,,,,,,,1,,,,,,,,,,,,,,,,,,,,,,,,,,,,,,,,,,,,,,,,,,,yes,,,2021-12-25T02:09:26.000Z,342256,group_9,378327,Prediction3/Open2,1,2021-12-25T01:22:07.000Z,,,,not measured,,True
