Block_Nr,Block_Name,Task_Nr,Task_Name,Trial_Nr,Trial_Id,ab_pitch,age_range,answer,best_instru,choice,clip,Condition_Id,conditions,consent,correct_incorrect_m_2,correct_incorrect_m_3,correct_incorrect_mem_1,correct_incorrect_p_1,correct_incorrect_p_2,correct_incorrect_p_3,correct_incorrect_practice_m,correct_incorrect_practice_p,correctCount,decision,earworm,errorCount,exampleCount,familiarity,fileArray,filePick,Frequenc,genre,genre_3,genre_4,hour,imagery,imagery_2,Instr,isCorrect,listen_time,music_theory,name_instru,nrErrors,num_instru,participant_choice,participant_choice_2,participant_choice2,participant_spacePress,participant_spacePress2,played_notplayed,practice_catseg_scramble,relative_pitch,response,response_seg,response_seg2,response_Time2,responseTime,retestCount,scramble_cat_1,scramble_cat_3,scramble_cat_4,scramble_catseg_4,scramble_level,scramble_m_1,scramble_m_2,scramble_m_3,scramble_open_3,scramble_p_1,scramble_p_2,scramble_p_3,set1response,soundName,strategy,time_atClipStart1,toneSequence,always_fullscreen,completed,crowdsourcing_code,crowdsourcing_subj_id,end_time,exp_subject_id,group_name,rec_session_id,session_name,session_nr,start_time,subj_counter_global,subj_counter_per_group,subject_code,time_delay_offset,time_measure_std,unlocked
13,Post-Survey,1,Post-Survey,1,1,No,"guitar and voice, 8-19, bass 19-19",,guitar,,,1,,,,,,,,,,,,,5.0,,,1.0,,,Daily,rock,jazz,funk,Biweekly,4.0,,Daily,,Weekly,Monthly,"voice, guitar, bass",,Biweekly,,,,,,option_1,,No,,,,,,,,,,,,,,,,,,,,,listening carefuly,,,,yes,,,2022-01-05T16:11:46.000Z,346025,group_7,382935,Prediction1/Open4,1,2022-01-05T15:28:01.000Z,,,,not measured,,True
11,OpenEndedSeg_4,4,OpenEndedSeg_4,1,10,,,,,,,3,,,,,,,,,,,,,,,,,,,,,,,,,,,,,,,,,,,,"""times=1641397868437;1641397874013;1641397882021;1641397885684;1641397891460;1641397897853;1641397909998;1641397928023---values=;5546;13553;17217;22993;29386;41531;59556""","""times=1641397868437;1641397949182;1641397977126;1641397994607---values=;14262;42206;59687""",,,,,,,,,,,,2B,,,,,,,,,,,,,,,,yes,,,2022-01-05T16:11:46.000Z,346025,group_7,382935,Prediction1/Open4,1,2022-01-05T15:28:01.000Z,,,,not measured,,True
11,OpenEndedSeg_4,4,OpenEndedSeg_4,2,9,,,,,,,3,,,,,,,,,,,,,,,,,,,,,,,,,,,,,,,,,,,,"""times=1641398001918;1641398008240;1641398024582;1641398041743---values=;6305;22647;39808""","""times=1641398001918;1641398106849---values=;38489""",,,,,,,,,,,,2B,,,,,,,,,,,,,,,,yes,,,2022-01-05T16:11:46.000Z,346025,group_7,382935,Prediction1/Open4,1,2022-01-05T15:28:01.000Z,,,,not measured,,True
11,OpenEndedSeg_4,4,OpenEndedSeg_4,3,1,,,,,,,1,,,,,,,,,,,,,,,,,,,,,,,,,,,,,,,,,,,,"""times=1641398135282;1641398170527;1641398200696---values=;35221;65389""","""times=1641398135282;1641398236128---values=;33901""",,,,,,,,,,,,intact,,,,,,,,,,,,,,,,yes,,,2022-01-05T16:11:46.000Z,346025,group_7,382935,Prediction1/Open4,1,2022-01-05T15:28:01.000Z,,,,not measured,,True
11,OpenEndedSeg_4,4,OpenEndedSeg_4,4,14,,,,,,,4,,,,,,,,,,,,,,,,,,,,,,,,,,,,,,,,,,,,"""times=1641398269641;1641398277830;1641398283247;1641398287565;1641398289637;1641398297183;1641398301021;1641398308503;1641398322870;1641398335237---values=;8169;13586;17904;19976;27522;31360;38842;53209;65576""","""times=1641398269641;1641398339734;1641398355325;1641398371991;1641398400248---values=;2975;18566;35232;63489""",,,,,,,,,,,,1B,,,,,,,,,,,,,,,,yes,,,2022-01-05T16:11:46.000Z,346025,group_7,382935,Prediction1/Open4,1,2022-01-05T15:28:01.000Z,,,,not measured,,True
11,OpenEndedSeg_4,4,OpenEndedSeg_4,5,5,,,,,,,2,,,,,,,,,,,,,,,,,,,,,,,,,,,,,,,,,,,,"""times=1641398404350;1641398429192;1641398457917---values=;24770;53495""","""times=1641398404350;1641398468327;1641398488981;1641398511197;1641398523021---values=;808;21462;43678;55502""",,,,,,,,,,,,8B,,,,,,,,,,,,,,,,yes,,,2022-01-05T16:11:46.000Z,346025,group_7,382935,Prediction1/Open4,1,2022-01-05T15:28:01.000Z,,,,not measured,,True
11,OpenEndedSeg_4,4,OpenEndedSeg_4,6,7,,,,,,,2,,,,,,,,,,,,,,,,,,,,,,,,,,,,,,,,,,,,"""times=1641398531112;1641398547774;1641398569960;1641398586830---values=;16659;38845;55715""","""times=1641398531112;1641398613759;1641398628814;1641398645622;1641398663341---values=;16136;31191;47999;65718""",,,,,,,,,,,,8B,,,,,,,,,,,,,,,,yes,,,2022-01-05T16:11:46.000Z,346025,group_7,382935,Prediction1/Open4,1,2022-01-05T15:28:01.000Z,,,,not measured,,True
11,OpenEndedSeg_4,4,OpenEndedSeg_4,7,16,,,,,,,4,,,,,,,,,,,,,,,,,,,,,,,,,,,,,,,,,,,,"""times=1641398664576;1641398672509;1641398687358;1641398724328---values=;7930;22779;59749""","""times=1641398664576;1641398735949;1641398752358;1641398762518;1641398789982---values=;8287;24696;34856;62320""",,,,,,,,,,,,1B,,,,,,,,,,,,,,,,yes,,,2022-01-05T16:11:46.000Z,346025,group_7,382935,Prediction1/Open4,1,2022-01-05T15:28:01.000Z,,,,not measured,,True
11,OpenEndedSeg_4,4,OpenEndedSeg_4,8,3,,,,,,,1,,,,,,,,,,,,,,,,,,,,,,,,,,,,,,,,,,,,"""times=1641398791187;1641398824551;1641398849440---values=;33362;58251""","""times=1641398791187;1641398897767---values=;43682""",,,,,,,,,,,,intact,,,,,,,,,,,,,,,,yes,,,2022-01-05T16:11:46.000Z,346025,group_7,382935,Prediction1/Open4,1,2022-01-05T15:28:01.000Z,,,,not measured,,True
11,OpenEndedSeg_4,3,Ready?,1,1,,,,,,,1,,,,,,,,,,,,,,,,,,,,,,,,,,,,,,,,,,,,,,,,,,,,,,,,,,,,,,,,,,,,,,,,,yes,,,2022-01-05T16:11:46.000Z,346025,group_7,382935,Prediction1/Open4,1,2022-01-05T15:28:01.000Z,,,,not measured,,True
11,OpenEndedSeg_4,2,Practice_OpenEnded,1,1,,,,,,,1,,,,,,,,,,,,,,,,,,,,,,,,,,,,,,,,,,,,"""times=1641397718754---values=10307""","""times=1641397797719;1641397808421;1641397826503;1641397855317---values=13808;24510;42592;71406""",,,,,,,,,,,,,,,,,,,,,,,,,,,,yes,,,2022-01-05T16:11:46.000Z,346025,group_7,382935,Prediction1/Open4,1,2022-01-05T15:28:01.000Z,,,,not measured,,True
11,OpenEndedSeg_4,1,Instructions_Open,1,1,,,,,,,1,,,,,,,,,,,,,,,,,,,,,,,,,,,,,,,,,,,,,,,,,,,,,,,,,,,,,,,,,,,,,,,,,yes,,,2022-01-05T16:11:46.000Z,346025,group_7,382935,Prediction1/Open4,1,2022-01-05T15:28:01.000Z,,,,not measured,,True
9,Prediction 1,4,Prediction_1,1,43,,,,,First,2_1B_prediction_3.mp3,5,,,,,,correct_first,,,,,,,,,,,,,,,,,,,,,,,,,,,,,,,,,,,Correct,,,,1322.0,,,,,,,,,,,1B,,,,,,,,,yes,,,2022-01-05T16:11:46.000Z,346025,group_7,382935,Prediction1/Open4,1,2022-01-05T15:28:01.000Z,,,,not measured,,True
9,Prediction 1,4,Prediction_1,2,11,,,,,Second,2_8B_prediction_1.mp3,2,,,,,,incorrect_first,,,,,,,,,,,,,,,,,,,,,,,,,,,,,,,,,,,Correct,,,,778.0,,,,,,,,,,,8B,,,,,,,,,yes,,,2022-01-05T16:11:46.000Z,346025,group_7,382935,Prediction1/Open4,1,2022-01-05T15:28:01.000Z,,,,not measured,,True
9,Prediction 1,4,Prediction_1,3,8,,,,,First,3_8B_prediction_3.mp3,1,,,,,,correct_first,,,,,,,,,,,,,,,,,,,,,,,,,,,,,,,,,,,Correct,,,,1053.0,,,,,,,,,,,8B,,,,,,,,,yes,,,2022-01-05T16:11:46.000Z,346025,group_7,382935,Prediction1/Open4,1,2022-01-05T15:28:01.000Z,,,,not measured,,True
9,Prediction 1,4,Prediction_1,4,60,,,,,Second,3_1B_prediction_5.mp3,6,,,,,,incorrect_first,,,,,,,,,,,,,,,,,,,,,,,,,,,,,,,,,,,Correct,,,,907.0,,,,,,,,,,,1B,,,,,,,,,yes,,,2022-01-05T16:11:46.000Z,346025,group_7,382935,Prediction1/Open4,1,2022-01-05T15:28:01.000Z,,,,not measured,,True
9,Prediction 1,4,Prediction_1,5,26,,,,,First,3_2B_prediction_1.mp3,3,,,,,,correct_first,,,,,,,,,,,,,,,,,,,,,,,,,,,,,,,,,,,Correct,,,,1418.0,,,,,,,,,,,2B,,,,,,,,,yes,,,2022-01-05T16:11:46.000Z,346025,group_7,382935,Prediction1/Open4,1,2022-01-05T15:28:01.000Z,,,,not measured,,True
9,Prediction 1,4,Prediction_1,6,51,,,,,Second,2_1B_prediction_1.mp3,6,,,,,,incorrect_first,,,,,,,,,,,,,,,,,,,,,,,,,,,,,,,,,,,Correct,,,,1850.0,,,,,,,,,,,1B,,,,,,,,,yes,,,2022-01-05T16:11:46.000Z,346025,group_7,382935,Prediction1/Open4,1,2022-01-05T15:28:01.000Z,,,,not measured,,True
9,Prediction 1,4,Prediction_1,7,9,,,,,First,3_8B_prediction_4.mp3,1,,,,,,correct_first,,,,,,,,,,,,,,,,,,,,,,,,,,,,,,,,,,,Correct,,,,881.0,,,,,,,,,,,8B,,,,,,,,,yes,,,2022-01-05T16:11:46.000Z,346025,group_7,382935,Prediction1/Open4,1,2022-01-05T15:28:01.000Z,,,,not measured,,True
9,Prediction 1,4,Prediction_1,8,12,,,,,First,2_8B_prediction_2.mp3,2,,,,,,incorrect_first,,,,,,,,,,,,,,,,,,,,,,,,,,,,,,,,,,,Incorrect,,,,890.0,,,,,,,,,,,8B,,,,,,,,,yes,,,2022-01-05T16:11:46.000Z,346025,group_7,382935,Prediction1/Open4,1,2022-01-05T15:28:01.000Z,,,,not measured,,True
9,Prediction 1,4,Prediction_1,9,10,,,,,First,3_8B_prediction_5.mp3,1,,,,,,correct_first,,,,,,,,,,,,,,,,,,,,,,,,,,,,,,,,,,,Correct,,,,983.0,,,,,,,,,,,8B,,,,,,,,,yes,,,2022-01-05T16:11:46.000Z,346025,group_7,382935,Prediction1/Open4,1,2022-01-05T15:28:01.000Z,,,,not measured,,True
9,Prediction 1,4,Prediction_1,10,30,,,,,First,3_2B_prediction_5.mp3,3,,,,,,correct_first,,,,,,,,,,,,,,,,,,,,,,,,,,,,,,,,,,,Correct,,,,1060.0,,,,,,,,,,,2B,,,,,,,,,yes,,,2022-01-05T16:11:46.000Z,346025,group_7,382935,Prediction1/Open4,1,2022-01-05T15:28:01.000Z,,,,not measured,,True
9,Prediction 1,4,Prediction_1,11,31,,,,,Second,2_2B_prediction_1.mp3,4,,,,,,incorrect_first,,,,,,,,,,,,,,,,,,,,,,,,,,,,,,,,,,,Correct,,,,970.0,,,,,,,,,,,2B,,,,,,,,,yes,,,2022-01-05T16:11:46.000Z,346025,group_7,382935,Prediction1/Open4,1,2022-01-05T15:28:01.000Z,,,,not measured,,True
9,Prediction 1,4,Prediction_1,12,37,,,,,First,3_2B_prediction_2.mp3,4,,,,,,incorrect_first,,,,,,,,,,,,,,,,,,,,,,,,,,,,,,,,,,,Incorrect,,,,1232.0,,,,,,,,,,,2B,,,,,,,,,yes,,,2022-01-05T16:11:46.000Z,346025,group_7,382935,Prediction1/Open4,1,2022-01-05T15:28:01.000Z,,,,not measured,,True
9,Prediction 1,4,Prediction_1,13,55,,,,,Second,2_1B_prediction_5.mp3,6,,,,,,incorrect_first,,,,,,,,,,,,,,,,,,,,,,,,,,,,,,,,,,,Correct,,,,917.0,,,,,,,,,,,1B,,,,,,,,,yes,,,2022-01-05T16:11:46.000Z,346025,group_7,382935,Prediction1/Open4,1,2022-01-05T15:28:01.000Z,,,,not measured,,True
9,Prediction 1,4,Prediction_1,14,44,,,,,First,2_1B_prediction_4.mp3,5,,,,,,correct_first,,,,,,,,,,,,,,,,,,,,,,,,,,,,,,,,,,,Correct,,,,907.0,,,,,,,,,,,1B,,,,,,,,,yes,,,2022-01-05T16:11:46.000Z,346025,group_7,382935,Prediction1/Open4,1,2022-01-05T15:28:01.000Z,,,,not measured,,True
9,Prediction 1,4,Prediction_1,15,4,,,,,Second,2_8B_prediction_4.mp3,1,,,,,,correct_first,,,,,,,,,,,,,,,,,,,,,,,,,,,,,,,,,,,Incorrect,,,,1591.0,,,,,,,,,,,8B,,,,,,,,,yes,,,2022-01-05T16:11:46.000Z,346025,group_7,382935,Prediction1/Open4,1,2022-01-05T15:28:01.000Z,,,,not measured,,True
9,Prediction 1,4,Prediction_1,16,28,,,,,First,3_2B_prediction_3.mp3,3,,,,,,correct_first,,,,,,,,,,,,,,,,,,,,,,,,,,,,,,,,,,,Correct,,,,1141.0,,,,,,,,,,,2B,,,,,,,,,yes,,,2022-01-05T16:11:46.000Z,346025,group_7,382935,Prediction1/Open4,1,2022-01-05T15:28:01.000Z,,,,not measured,,True
9,Prediction 1,4,Prediction_1,17,33,,,,,Second,2_2B_prediction_3.mp3,4,,,,,,incorrect_first,,,,,,,,,,,,,,,,,,,,,,,,,,,,,,,,,,,Correct,,,,1281.0,,,,,,,,,,,2B,,,,,,,,,yes,,,2022-01-05T16:11:46.000Z,346025,group_7,382935,Prediction1/Open4,1,2022-01-05T15:28:01.000Z,,,,not measured,,True
9,Prediction 1,4,Prediction_1,18,3,,,,,Second,2_8B_prediction_3.mp3,1,,,,,,correct_first,,,,,,,,,,,,,,,,,,,,,,,,,,,,,,,,,,,Incorrect,,,,3646.0,,,,,,,,,,,8B,,,,,,,,,yes,,,2022-01-05T16:11:46.000Z,346025,group_7,382935,Prediction1/Open4,1,2022-01-05T15:28:01.000Z,,,,not measured,,True
9,Prediction 1,4,Prediction_1,19,47,,,,,First,3_1B_prediction_2.mp3,5,,,,,,correct_first,,,,,,,,,,,,,,,,,,,,,,,,,,,,,,,,,,,Correct,,,,886.0,,,,,,,,,,,1B,,,,,,,,,yes,,,2022-01-05T16:11:46.000Z,346025,group_7,382935,Prediction1/Open4,1,2022-01-05T15:28:01.000Z,,,,not measured,,True
9,Prediction 1,4,Prediction_1,20,39,,,,,Second,3_2B_prediction_4.mp3,4,,,,,,incorrect_first,,,,,,,,,,,,,,,,,,,,,,,,,,,,,,,,,,,Correct,,,,1266.0,,,,,,,,,,,2B,,,,,,,,,yes,,,2022-01-05T16:11:46.000Z,346025,group_7,382935,Prediction1/Open4,1,2022-01-05T15:28:01.000Z,,,,not measured,,True
9,Prediction 1,4,Prediction_1,21,52,,,,,Second,2_1B_prediction_2.mp3,6,,,,,,incorrect_first,,,,,,,,,,,,,,,,,,,,,,,,,,,,,,,,,,,Correct,,,,1390.0,,,,,,,,,,,1B,,,,,,,,,yes,,,2022-01-05T16:11:46.000Z,346025,group_7,382935,Prediction1/Open4,1,2022-01-05T15:28:01.000Z,,,,not measured,,True
9,Prediction 1,4,Prediction_1,22,16,,,,,First,3_8B_prediction_1.mp3,2,,,,,,incorrect_first,,,,,,,,,,,,,,,,,,,,,,,,,,,,,,,,,,,Incorrect,,,,1005.0,,,,,,,,,,,8B,,,,,,,,,yes,,,2022-01-05T16:11:46.000Z,346025,group_7,382935,Prediction1/Open4,1,2022-01-05T15:28:01.000Z,,,,not measured,,True
9,Prediction 1,4,Prediction_1,23,15,,,,,Second,2_8B_prediction_5.mp3,2,,,,,,incorrect_first,,,,,,,,,,,,,,,,,,,,,,,,,,,,,,,,,,,Correct,,,,1696.0,,,,,,,,,,,8B,,,,,,,,,yes,,,2022-01-05T16:11:46.000Z,346025,group_7,382935,Prediction1/Open4,1,2022-01-05T15:28:01.000Z,,,,not measured,,True
9,Prediction 1,4,Prediction_1,24,32,,,,,Second,2_2B_prediction_2.mp3,4,,,,,,incorrect_first,,,,,,,,,,,,,,,,,,,,,,,,,,,,,,,,,,,Correct,,,,3781.0,,,,,,,,,,,2B,,,,,,,,,yes,,,2022-01-05T16:11:46.000Z,346025,group_7,382935,Prediction1/Open4,1,2022-01-05T15:28:01.000Z,,,,not measured,,True
9,Prediction 1,4,Prediction_1,25,17,,,,,First,3_8B_prediction_10.mp3,2,,,,,,incorrect_first,,,,,,,,,,,,,,,,,,,,,,,,,,,,,,,,,,,Incorrect,,,,1181.0,,,,,,,,,,,8B,,,,,,,,,yes,,,2022-01-05T16:11:46.000Z,346025,group_7,382935,Prediction1/Open4,1,2022-01-05T15:28:01.000Z,,,,not measured,,True
9,Prediction 1,4,Prediction_1,26,49,,,,,Second,3_1B_prediction_4.mp3,5,,,,,,correct_first,,,,,,,,,,,,,,,,,,,,,,,,,,,,,,,,,,,Incorrect,,,,2270.0,,,,,,,,,,,1B,,,,,,,,,yes,,,2022-01-05T16:11:46.000Z,346025,group_7,382935,Prediction1/Open4,1,2022-01-05T15:28:01.000Z,,,,not measured,,True
9,Prediction 1,4,Prediction_1,27,25,,,,,,2_2B_prediction_5.mp3,3,,,,,,correct_first,,,,,,,,,,,,,,,,,,,,,,,,,,,,,,,,,,,,,,,,,,,,,,,,,,2B,,,,,,,,,yes,,,2022-01-05T16:11:46.000Z,346025,group_7,382935,Prediction1/Open4,1,2022-01-05T15:28:01.000Z,,,,not measured,,True
9,Prediction 1,4,Prediction_1,28,46,,,,,Second,3_1B_prediction_1.mp3,5,,,,,,correct_first,,,,,,,,,,,,,,,,,,,,,,,,,,,,,,,,,,,Incorrect,,,,832.0,,,,,,,,,,,1B,,,,,,,,,yes,,,2022-01-05T16:11:46.000Z,346025,group_7,382935,Prediction1/Open4,1,2022-01-05T15:28:01.000Z,,,,not measured,,True
9,Prediction 1,4,Prediction_1,29,48,,,,,Second,3_1B_prediction_3.mp3,5,,,,,,correct_first,,,,,,,,,,,,,,,,,,,,,,,,,,,,,,,,,,,Incorrect,,,,1596.0,,,,,,,,,,,1B,,,,,,,,,yes,,,2022-01-05T16:11:46.000Z,346025,group_7,382935,Prediction1/Open4,1,2022-01-05T15:28:01.000Z,,,,not measured,,True
9,Prediction 1,4,Prediction_1,30,34,,,,,Second,2_2B_prediction_4.mp3,4,,,,,,incorrect_first,,,,,,,,,,,,,,,,,,,,,,,,,,,,,,,,,,,Correct,,,,638.0,,,,,,,,,,,2B,,,,,,,,,yes,,,2022-01-05T16:11:46.000Z,346025,group_7,382935,Prediction1/Open4,1,2022-01-05T15:28:01.000Z,,,,not measured,,True
9,Prediction 1,3,Ready?,1,1,,,,,,,1,,,,,,,,,,,,,,,,,,,,,,,,,,,,,,,,,,,,,,,,,,,,,,,,,,,,,,,,,,,,,,,,,yes,,,2022-01-05T16:11:46.000Z,346025,group_7,382935,Prediction1/Open4,1,2022-01-05T15:28:01.000Z,,,,not measured,,True
9,Prediction 1,2,Practice_Prediction,1,4,,,,,,,2,,,,,,,,,,incorrect_correct,,,,,,,,,,,,,,,,,,,,,,,,,,,,,,,,,,,,,,,,,,,,,,,,,,,,,,,yes,,,2022-01-05T16:11:46.000Z,346025,group_7,382935,Prediction1/Open4,1,2022-01-05T15:28:01.000Z,,,,not measured,,True
9,Prediction 1,2,Practice_Prediction,2,5,,,,,Second,,2,,,,,,,,,,incorrect_correct,,,,,,,,,,,,,,,,,,,,,,,,,,,,,,,Correct,,,,1464.0,,,,,,,,,,,,,,,,,,,,yes,,,2022-01-05T16:11:46.000Z,346025,group_7,382935,Prediction1/Open4,1,2022-01-05T15:28:01.000Z,,,,not measured,,True
9,Prediction 1,2,Practice_Prediction,3,3,,,,,First,,1,,,,,,,,,,correct_incorrect,,,,,,,,,,,,,,,,,,,,,,,,,,,,,,,Correct,,,,940.0,,,,,,,,,,,,,,,,,,,,yes,,,2022-01-05T16:11:46.000Z,346025,group_7,382935,Prediction1/Open4,1,2022-01-05T15:28:01.000Z,,,,not measured,,True
9,Prediction 1,1,Instructions_Prediction,1,1,,,,,,,1,,,,,,,,,,,,,,,,,,,,,,,,,,,,,,,,,,,,,,,,,,,,,,,,,,,,,,,,,,,,,,,,,yes,,,2022-01-05T16:11:46.000Z,346025,group_7,382935,Prediction1/Open4,1,2022-01-05T15:28:01.000Z,,,,not measured,,True
7,AP_Screen,3,imported_AP_eval,1,1,,,,,,,1,,,,,,,,,,,,,,,,,,,,,,,,,,,,,,,0.0,,,,,,,,,,,,,,,,,,,,,,,,,,,,,,,,,,yes,,,2022-01-05T16:11:46.000Z,346025,group_7,382935,Prediction1/Open4,1,2022-01-05T15:28:01.000Z,,,,not measured,,True
7,AP_Screen,2,imported_AP_headphone test,1,2,,,,,,,2,,,,,,,,,,,,two,,,,,,,,,,,,,,,1.0,,,,0.0,,,,,,,,,,,,,,,,,,,,,,,,,,,,,,,,I_S_O,,yes,,,2022-01-05T16:11:46.000Z,346025,group_7,382935,Prediction1/Open4,1,2022-01-05T15:28:01.000Z,,,,not measured,,True
7,AP_Screen,2,imported_AP_headphone test,2,4,,,,,,,4,,,,,,,,,,,,one,,,,,,,,,,,,,,,1.0,,,,0.0,,,,,,,,,,,,,,,,,,,,,,,,,,,,,,,,S_I_O,,yes,,,2022-01-05T16:11:46.000Z,346025,group_7,382935,Prediction1/Open4,1,2022-01-05T15:28:01.000Z,,,,not measured,,True
7,AP_Screen,2,imported_AP_headphone test,3,6,,,,,,,6,,,,,,,,,,,,three,,,,,,,,,,,,,,,1.0,,,,0.0,,,,,,,,,,,,,,,,,,,,,,,,,,,,,,,,O_I_S,,yes,,,2022-01-05T16:11:46.000Z,346025,group_7,382935,Prediction1/Open4,1,2022-01-05T15:28:01.000Z,,,,not measured,,True
7,AP_Screen,2,imported_AP_headphone test,4,1,,,,,,,1,,,,,,,,,,,,three,,,,,,,,,,,,,,,1.0,,,,0.0,,,,,,,,,,,,,,,,,,,,,,,,,,,,,,,,I_O_S,,yes,,,2022-01-05T16:11:46.000Z,346025,group_7,382935,Prediction1/Open4,1,2022-01-05T15:28:01.000Z,,,,not measured,,True
7,AP_Screen,2,imported_AP_headphone test,5,3,,,,,,,3,,,,,,,,,,,,one,,,,,,,,,,,,,,,1.0,,,,0.0,,,,,,,,,,,,,,,,,,,,,,,,,,,,,,,,S_O_I,,yes,,,2022-01-05T16:11:46.000Z,346025,group_7,382935,Prediction1/Open4,1,2022-01-05T15:28:01.000Z,,,,not measured,,True
7,AP_Screen,2,imported_AP_headphone test,6,5,,,,,,,5,,,,,,,,,,,,two,,,,,,,,,,,,,,,1.0,,,,0.0,,,,,,,,,,,,,,,,,,,,,,,,,,,,,,,,O_S_I,,yes,,,2022-01-05T16:11:46.000Z,346025,group_7,382935,Prediction1/Open4,1,2022-01-05T15:28:01.000Z,,,,not measured,,True
7,AP_Screen,1,imported_AP_instruction,1,1,,,,,,,1,,,,,,,,,,,,,,,,,,,,,,,,,,,,,,,,,,,,,,,,,,,,,,,,,,,,,,,,,,,,,,,,,yes,,,2022-01-05T16:11:46.000Z,346025,group_7,382935,Prediction1/Open4,1,2022-01-05T15:28:01.000Z,,,,not measured,,True
6,HP_Screen,3,imported_HP Evaluation,1,1,,,,,,,1,,,,,,,,,,,,,,0.0,,,,,,,,,,,,,,,,,,,,,,,,,,,,,,,,,,,,,,,,,,,,,,,,,,,yes,,,2022-01-05T16:11:46.000Z,346025,group_7,382935,Prediction1/Open4,1,2022-01-05T15:28:01.000Z,,,,not measured,,True
6,HP_Screen,2,imported_HP Trials,1,1,,,,,,,1,,,,,,,,,,,,,,0.0,,,"""times=;;;;;;;;;;;;;;;;;---values=;;;;;;;;;;;;;;;;;""",hp1.3.flac,,,,,,,,,,,,,,,,,,,,,,,choice 3,,,,,,,,,,,,,,,,,,,hp1.3.flac,,,,,yes,,,2022-01-05T16:11:46.000Z,346025,group_7,382935,Prediction1/Open4,1,2022-01-05T15:28:01.000Z,,,,not measured,,True
6,HP_Screen,2,imported_HP Trials,2,4,,,,,,,1,,,,,,,,,,,,,,0.0,,,"""times=;;;;;;;;;;;;;;;;;---values=;;;;;;;;;;;;;;;;;""",hp6.3.flac,,,,,,,,,,,,,,,,,,,,,,,choice 3,,,,,,,,,,,,,,,,,,,hp6.3.flac,,,,,yes,,,2022-01-05T16:11:46.000Z,346025,group_7,382935,Prediction1/Open4,1,2022-01-05T15:28:01.000Z,,,,not measured,,True
6,HP_Screen,2,imported_HP Trials,3,6,,,,,,,1,,,,,,,,,,,,,,0.0,,,"""times=;;;;;;;;;;;;;;;;;---values=;;;;;;;;;;;;;;;;;""",hp6.2.flac,,,,,,,,,,,,,,,,,,,,,,,choice 2,,,,,,,,,,,,,,,,,,,hp6.2.flac,,,,,yes,,,2022-01-05T16:11:46.000Z,346025,group_7,382935,Prediction1/Open4,1,2022-01-05T15:28:01.000Z,,,,not measured,,True
6,HP_Screen,2,imported_HP Trials,4,3,,,,,,,1,,,,,,,,,,,,,,0.0,,,"""times=;;;;;;;;;;;;;;;;;---values=;;;;;;;;;;;;;;;;;""",hp5.3.flac,,,,,,,,,,,,,,,,,,,,,,,choice 3,,,,,,,,,,,,,,,,,,,hp5.3.flac,,,,,yes,,,2022-01-05T16:11:46.000Z,346025,group_7,382935,Prediction1/Open4,1,2022-01-05T15:28:01.000Z,,,,not measured,,True
6,HP_Screen,2,imported_HP Trials,5,5,,,,,,,1,,,,,,,,,,,,,,0.0,,,"""times=;;;;;;;;;;;;;;;;;---values=;;;;;;;;;;;;;;;;;""",hp2.3.flac,,,,,,,,,,,,,,,,,,,,,,,choice 3,,,,,,,,,,,,,,,,,,,hp2.3.flac,,,,,yes,,,2022-01-05T16:11:46.000Z,346025,group_7,382935,Prediction1/Open4,1,2022-01-05T15:28:01.000Z,,,,not measured,,True
6,HP_Screen,2,imported_HP Trials,6,2,,,,,,,1,,,,,,,,,,,,,,0.0,,,"""times=;;;;;;;;;;;;;;;;;---values=;;;;;;;;;;;;;;;;;""",hp4.2.flac,,,,,,,,,,,,,,,,,,,,,,,choice 2,,,,,,,,,,,,,,,,,,,hp4.2.flac,,,,,yes,,,2022-01-05T16:11:46.000Z,346025,group_7,382935,Prediction1/Open4,1,2022-01-05T15:28:01.000Z,,,,not measured,,True
6,HP_Screen,1,imported_HP Instructions,1,1,,,,,,,1,,,,,,,,,,,,,,,1.0,,,,,,,,,,,,,,,,,,,,,,,,,,,,,,,,,,,,,,,,,,,,,,,,,,yes,,,2022-01-05T16:11:46.000Z,346025,group_7,382935,Prediction1/Open4,1,2022-01-05T15:28:01.000Z,,,,not measured,,True
4,GenInstructPredOpen,1,InstructionsPredOpen,1,1,,,,,,,1,,,,,,,,,,,,,,,,,,,,,,,,,,,,,,,,,,,,,,,,,,,,,,,,,,,,,,,,,,,,,,,,,yes,,,2022-01-05T16:11:46.000Z,346025,group_7,382935,Prediction1/Open4,1,2022-01-05T15:28:01.000Z,,,,not measured,,True
2,Consent,1,Consent,1,1,,,,,,,1,,,,,,,,,,,,,,,,,,,,,,,,,,,,,,,,,,,,,,,,,,,,,,,,,,,,,,,,,,,,,,,,,yes,,,2022-01-05T16:11:46.000Z,346025,group_7,382935,Prediction1/Open4,1,2022-01-05T15:28:01.000Z,,,,not measured,,True
