Block_Nr,Block_Name,Task_Nr,Task_Name,Trial_Nr,Trial_Id,ab_pitch,age_range,answer,best_instru,choice,clip,Condition_Id,conditions,consent,correct_incorrect_m_2,correct_incorrect_m_3,correct_incorrect_mem_1,correct_incorrect_p_1,correct_incorrect_p_2,correct_incorrect_p_3,correct_incorrect_practice_m,correct_incorrect_practice_p,correctCount,decision,earworm,errorCount,exampleCount,familiarity,fileArray,filePick,Frequenc,genre,genre_3,genre_4,hour,imagery,imagery_2,Instr,isCorrect,listen_time,music_theory,name_instru,nrErrors,num_instru,participant_choice,participant_choice_2,participant_choice2,participant_spacePress,participant_spacePress2,played_notplayed,practice_catseg_scramble,relative_pitch,response,response_seg,response_seg2,response_Time2,responseTime,retestCount,scramble_cat_1,scramble_cat_3,scramble_cat_4,scramble_catseg_4,scramble_level,scramble_m_1,scramble_m_2,scramble_m_3,scramble_open_3,scramble_p_1,scramble_p_2,scramble_p_3,set1response,soundName,strategy,time_atClipStart1,toneSequence,always_fullscreen,completed,crowdsourcing_code,crowdsourcing_subj_id,end_time,exp_subject_id,group_name,rec_session_id,session_name,session_nr,start_time,subj_counter_global,subj_counter_per_group,subject_code,time_delay_offset,time_measure_std,unlocked
13,Post-Survey,1,Post-Survey,1,1,,,,,,,1,,,,,,,,,,,,,,,,2.0,,,,,,,,,,,,,,,,,,,,,,option_1,,,,,,,,,,,,,,,,,,,,,,,"I just focused on the rhythm of the song, that was my only strategy",,,,yes,,,2022-01-20T02:18:03.000Z,356815,group_9,395587,Prediction3/Open2,1,2022-01-20T01:36:59.000Z,,,,not measured,,True
11,OpenEndedSeg_2,4,OpenEndedSeg_2,1,7,,,,,,,2,,,,,,,,,,,,,,,,,,,,,,,,,,,,,,,,,,,,,"""times=1642643987720;1642644063990;1642644073429---values=;17025;26464""",,,,,,,,,,,,,,8B,,,,,,,,,,,,,,yes,,,2022-01-20T02:18:03.000Z,356815,group_9,395587,Prediction3/Open2,1,2022-01-20T01:36:59.000Z,,,,not measured,,True
11,OpenEndedSeg_2,4,OpenEndedSeg_2,2,4,,,,,,,1,,,,,,,,,,,,,,,,,,,,,,,,,,,,,,,,,,,,"""times=1642644140142;1642644160550---values=33476;53884""","""times=1642644106665;1642644200511;1642644224428---values=;31165;55082""",,,,,,,,,,,,,,intact,,,,,,,,,,,,,,yes,,,2022-01-20T02:18:03.000Z,356815,group_9,395587,Prediction3/Open2,1,2022-01-20T01:36:59.000Z,,,,not measured,,True
11,OpenEndedSeg_2,4,OpenEndedSeg_2,3,15,,,,,,,4,,,,,,,,,,,,,,,,,,,,,,,,,,,,,,,,,,,,"""times=1642644232454;1642644235656;1642644244611;1642644252576;1642644268440;1642644288475;1642644290241---values=;3167;12122;20087;35951;55986;57752""","""times=1642644232454;1642644296035;1642644324251;1642644337087;1642644340080;1642644348079;1642644349642---values=;2904;31120;43956;46949;54948;56511""",,,,,,,,,,,,,,1B,,,,,,,,,,,,,,yes,,,2022-01-20T02:18:03.000Z,356815,group_9,395587,Prediction3/Open2,1,2022-01-20T01:36:59.000Z,,,,not measured,,True
11,OpenEndedSeg_2,4,OpenEndedSeg_2,4,12,,,,,,,3,,,,,,,,,,,,,,,,,,,,,,,,,,,,,,,,,,,,"""times=1642644354252;1642644359689;1642644373909;1642644401191;1642644408908---values=;5435;19655;46937;54654""","""times=1642644354252;1642644434784;1642644446439;1642644467338---values=;21562;33217;54116""",,,,,,,,,,,,,,2B,,,,,,,,,,,,,,yes,,,2022-01-20T02:18:03.000Z,356815,group_9,395587,Prediction3/Open2,1,2022-01-20T01:36:59.000Z,,,,not measured,,True
11,OpenEndedSeg_2,4,OpenEndedSeg_2,5,6,,,,,,,2,,,,,,,,,,,,,,,,,,,,,,,,,,,,,,,,,,,,"""times=1642644472583;1642644486777;1642644506262;1642644522057---values=;14193;33678;49473""","""times=1642644472583;1642644553400;1642644572087;1642644581244;1642644589423---values=;13842;32529;41686;49865""",,,,,,,,,,,,,,8B,,,,,,,,,,,,,,yes,,,2022-01-20T02:18:03.000Z,356815,group_9,395587,Prediction3/Open2,1,2022-01-20T01:36:59.000Z,,,,not measured,,True
11,OpenEndedSeg_2,4,OpenEndedSeg_2,6,3,,,,,,,1,,,,,,,,,,,,,,,,,,,,,,,,,,,,,,,,,,,,"""times=1642644606946;1642644624175---values=;17228""","""times=1642644606946;1642644673619---values=;16109""",,,,,,,,,,,,,,intact,,,,,,,,,,,,,,yes,,,2022-01-20T02:18:03.000Z,356815,group_9,395587,Prediction3/Open2,1,2022-01-20T01:36:59.000Z,,,,not measured,,True
11,OpenEndedSeg_2,4,OpenEndedSeg_2,7,16,,,,,,,4,,,,,,,,,,,,,,,,,,,,,,,,,,,,,,,,,,,,"""times=1642644708480;1642644712128;1642644722996;1642644762159---values=;3647;14515;53678""","""times=1642644708480;1642644772249;1642644782396;1642644792049;1642644823133---values=;2925;13072;22725;53809""",,,,,,,,,,,,,,1B,,,,,,,,,,,,,,yes,,,2022-01-20T02:18:03.000Z,356815,group_9,395587,Prediction3/Open2,1,2022-01-20T01:36:59.000Z,,,,not measured,,True
11,OpenEndedSeg_2,4,OpenEndedSeg_2,8,11,,,,,,,3,,,,,,,,,,,,,,,,,,,,,,,,,,,,,,,,,,,,"""times=1642644830644;1642644839311;1642644847298;1642644852552;1642644855803;1642644868381;1642644871959;1642644875637---values=;8665;16652;21906;25157;37735;41313;44991""","""times=1642644830644;1642644902435;1642644906136;1642644914338;1642644920244;1642644926331;1642644930785---values=;8758;12459;20661;26567;32654;37108""",,,,,,,,,,,,,,2B,,,,,,,,,,,,,,yes,,,2022-01-20T02:18:03.000Z,356815,group_9,395587,Prediction3/Open2,1,2022-01-20T01:36:59.000Z,,,,not measured,,True
11,OpenEndedSeg_2,3,Ready?,1,1,,,,,,,1,,,,,,,,,,,,,,,,,,,,,,,,,,,,,,,,,,,,,,,,,,,,,,,,,,,,,,,,,,,,,,,,,yes,,,2022-01-20T02:18:03.000Z,356815,group_9,395587,Prediction3/Open2,1,2022-01-20T01:36:59.000Z,,,,not measured,,True
11,OpenEndedSeg_2,2,Practice_OpenEnded,1,1,,,,,,,1,,,,,,,,,,,,,,,,,,,,,,,,,,,,,,,,,,,,,"""times=1642643928700;1642643974090---values=25680;71070""",,,,,,,,,,,,,,,,,,,,,,,,,,,,yes,,,2022-01-20T02:18:03.000Z,356815,group_9,395587,Prediction3/Open2,1,2022-01-20T01:36:59.000Z,,,,not measured,,True
11,OpenEndedSeg_2,1,Instructions_Open,1,1,,,,,,,1,,,,,,,,,,,,,,,,,,,,,,,,,,,,,,,,,,,,,,,,,,,,,,,,,,,,,,,,,,,,,,,,,yes,,,2022-01-20T02:18:03.000Z,356815,group_9,395587,Prediction3/Open2,1,2022-01-20T01:36:59.000Z,,,,not measured,,True
9,Prediction3,4,Prediction_3,1,49,,,,,First,4_1B_prediction_8.mp3,5,,,,,,,,correct_left,,,,,,,,,,,,,,,,,,,,,,,,,,,,,,,,,Correct,,,,2771.0,,,,,,,,,,,,,1B,,,,,,,yes,,,2022-01-20T02:18:03.000Z,356815,group_9,395587,Prediction3/Open2,1,2022-01-20T01:36:59.000Z,,,,not measured,,True
9,Prediction3,4,Prediction_3,2,40,,,,,First,4_2B_prediction_9.mp3,4,,,,,,,,incorrect_left,,,,,,,,,,,,,,,,,,,,,,,,,,,,,,,,,Incorrect,,,,1565.0,,,,,,,,,,,,,2B,,,,,,,yes,,,2022-01-20T02:18:03.000Z,356815,group_9,395587,Prediction3/Open2,1,2022-01-20T01:36:59.000Z,,,,not measured,,True
9,Prediction3,4,Prediction_3,3,34,,,,,Second,3_2B_prediction_9.mp3,4,,,,,,,,incorrect_left,,,,,,,,,,,,,,,,,,,,,,,,,,,,,,,,,Correct,,,,1036.0,,,,,,,,,,,,,2B,,,,,,,yes,,,2022-01-20T02:18:03.000Z,356815,group_9,395587,Prediction3/Open2,1,2022-01-20T01:36:59.000Z,,,,not measured,,True
9,Prediction3,4,Prediction_3,4,32,,,,,Second,3_2B_prediction_7.mp3,4,,,,,,,,incorrect_left,,,,,,,,,,,,,,,,,,,,,,,,,,,,,,,,,Correct,,,,791.0,,,,,,,,,,,,,2B,,,,,,,yes,,,2022-01-20T02:18:03.000Z,356815,group_9,395587,Prediction3/Open2,1,2022-01-20T01:36:59.000Z,,,,not measured,,True
9,Prediction3,4,Prediction_3,5,14,,,,,First,3_8B_prediction_9.mp3,2,,,,,,,,incorrect_left,,,,,,,,,,,,,,,,,,,,,,,,,,,,,,,,,Incorrect,,,,760.0,,,,,,,,,,,,,8B,,,,,,,yes,,,2022-01-20T02:18:03.000Z,356815,group_9,395587,Prediction3/Open2,1,2022-01-20T01:36:59.000Z,,,,not measured,,True
9,Prediction3,4,Prediction_3,6,15,,,,,Second,3_8B_prediction_2.mp3,2,,,,,,,,incorrect_left,,,,,,,,,,,,,,,,,,,,,,,,,,,,,,,,,Correct,,,,639.0,,,,,,,,,,,,,8B,,,,,,,yes,,,2022-01-20T02:18:03.000Z,356815,group_9,395587,Prediction3/Open2,1,2022-01-20T01:36:59.000Z,,,,not measured,,True
9,Prediction3,4,Prediction_3,7,33,,,,,Second,3_2B_prediction_8.mp3,4,,,,,,,,incorrect_left,,,,,,,,,,,,,,,,,,,,,,,,,,,,,,,,,Correct,,,,1057.0,,,,,,,,,,,,,2B,,,,,,,yes,,,2022-01-20T02:18:03.000Z,356815,group_9,395587,Prediction3/Open2,1,2022-01-20T01:36:59.000Z,,,,not measured,,True
9,Prediction3,4,Prediction_3,8,27,,,,,First,4_2B_prediction_6.mp3,3,,,,,,,,correct_left,,,,,,,,,,,,,,,,,,,,,,,,,,,,,,,,,Correct,,,,881.0,,,,,,,,,,,,,2B,,,,,,,yes,,,2022-01-20T02:18:03.000Z,356815,group_9,395587,Prediction3/Open2,1,2022-01-20T01:36:59.000Z,,,,not measured,,True
9,Prediction3,4,Prediction_3,9,36,,,,,First,4_2B_prediction_5.mp3,4,,,,,,,,incorrect_left,,,,,,,,,,,,,,,,,,,,,,,,,,,,,,,,,Incorrect,,,,598.0,,,,,,,,,,,,,2B,,,,,,,yes,,,2022-01-20T02:18:03.000Z,356815,group_9,395587,Prediction3/Open2,1,2022-01-20T01:36:59.000Z,,,,not measured,,True
9,Prediction3,4,Prediction_3,10,31,,,,,First,3_2B_prediction_6.mp3,4,,,,,,,,incorrect_left,,,,,,,,,,,,,,,,,,,,,,,,,,,,,,,,,Incorrect,,,,614.0,,,,,,,,,,,,,2B,,,,,,,yes,,,2022-01-20T02:18:03.000Z,356815,group_9,395587,Prediction3/Open2,1,2022-01-20T01:36:59.000Z,,,,not measured,,True
9,Prediction3,4,Prediction_3,11,2,,,,,First,3_8B_prediction_7.mp3,1,,,,,,,,correct_left,,,,,,,,,,,,,,,,,,,,,,,,,,,,,,,,,Correct,,,,937.0,,,,,,,,,,,,,8B,,,,,,,yes,,,2022-01-20T02:18:03.000Z,356815,group_9,395587,Prediction3/Open2,1,2022-01-20T01:36:59.000Z,,,,not measured,,True
9,Prediction3,4,Prediction_3,12,7,,,,,First,4_8B_prediction_6.mp3,1,,,,,,,,correct_left,,,,,,,,,,,,,,,,,,,,,,,,,,,,,,,,,Correct,,,,601.0,,,,,,,,,,,,,8B,,,,,,,yes,,,2022-01-20T02:18:03.000Z,356815,group_9,395587,Prediction3/Open2,1,2022-01-20T01:36:59.000Z,,,,not measured,,True
9,Prediction3,4,Prediction_3,13,50,,,,,First,4_8B_prediction_9.mp3,5,,,,,,,,correct_left,,,,,,,,,,,,,,,,,,,,,,,,,,,,,,,,,Correct,,,,1297.0,,,,,,,,,,,,,1B,,,,,,,yes,,,2022-01-20T02:18:03.000Z,356815,group_9,395587,Prediction3/Open2,1,2022-01-20T01:36:59.000Z,,,,not measured,,True
9,Prediction3,4,Prediction_3,14,35,,,,,First,3_2B_prediction_10.mp3,4,,,,,,,,incorrect_left,,,,,,,,,,,,,,,,,,,,,,,,,,,,,,,,,Incorrect,,,,1215.0,,,,,,,,,,,,,2B,,,,,,,yes,,,2022-01-20T02:18:03.000Z,356815,group_9,395587,Prediction3/Open2,1,2022-01-20T01:36:59.000Z,,,,not measured,,True
9,Prediction3,4,Prediction_3,15,44,,,,,Second,3_1B_prediction_9.mp3,5,,,,,,,,correct_left,,,,,,,,,,,,,,,,,,,,,,,,,,,,,,,,,Incorrect,,,,680.0,,,,,,,,,,,,,1B,,,,,,,yes,,,2022-01-20T02:18:03.000Z,356815,group_9,395587,Prediction3/Open2,1,2022-01-20T01:36:59.000Z,,,,not measured,,True
9,Prediction3,4,Prediction_3,16,28,,,,,Second,4_2B_prediction_7.mp3,3,,,,,,,,correct_left,,,,,,,,,,,,,,,,,,,,,,,,,,,,,,,,,Incorrect,,,,709.0,,,,,,,,,,,,,2B,,,,,,,yes,,,2022-01-20T02:18:03.000Z,356815,group_9,395587,Prediction3/Open2,1,2022-01-20T01:36:59.000Z,,,,not measured,,True
9,Prediction3,4,Prediction_3,17,3,,,,,First,3_8B_prediction_8.mp3,1,,,,,,,,correct_left,,,,,,,,,,,,,,,,,,,,,,,,,,,,,,,,,Correct,,,,615.0,,,,,,,,,,,,,8B,,,,,,,yes,,,2022-01-20T02:18:03.000Z,356815,group_9,395587,Prediction3/Open2,1,2022-01-20T01:36:59.000Z,,,,not measured,,True
9,Prediction3,4,Prediction_3,18,51,,,,,Second,3_1B_prediction_6.mp3,6,,,,,,,,incorrect_left,,,,,,,,,,,,,,,,,,,,,,,,,,,,,,,,,Correct,,,,1504.0,,,,,,,,,,,,,1B,,,,,,,yes,,,2022-01-20T02:18:03.000Z,356815,group_9,395587,Prediction3/Open2,1,2022-01-20T01:36:59.000Z,,,,not measured,,True
9,Prediction3,4,Prediction_3,19,18,,,,,Second,4_8B_prediction_7.mp3,2,,,,,,,,incorrect_left,,,,,,,,,,,,,,,,,,,,,,,,,,,,,,,,,Correct,,,,1159.0,,,,,,,,,,,,,8B,,,,,,,yes,,,2022-01-20T02:18:03.000Z,356815,group_9,395587,Prediction3/Open2,1,2022-01-20T01:36:59.000Z,,,,not measured,,True
9,Prediction3,4,Prediction_3,20,20,,,,,Second,4_8B_prediction_9.mp3,2,,,,,,,,incorrect_left,,,,,,,,,,,,,,,,,,,,,,,,,,,,,,,,,Correct,,,,1049.0,,,,,,,,,,,,,8B,,,,,,,yes,,,2022-01-20T02:18:03.000Z,356815,group_9,395587,Prediction3/Open2,1,2022-01-20T01:36:59.000Z,,,,not measured,,True
9,Prediction3,4,Prediction_3,21,45,,,,,Second,3_1B_prediction_10.mp3,5,,,,,,,,correct_left,,,,,,,,,,,,,,,,,,,,,,,,,,,,,,,,,Incorrect,,,,879.0,,,,,,,,,,,,,1B,,,,,,,yes,,,2022-01-20T02:18:03.000Z,356815,group_9,395587,Prediction3/Open2,1,2022-01-20T01:36:59.000Z,,,,not measured,,True
9,Prediction3,4,Prediction_3,22,43,,,,,Second,3_1B_prediction_8.mp3,5,,,,,,,,correct_left,,,,,,,,,,,,,,,,,,,,,,,,,,,,,,,,,Incorrect,,,,1220.0,,,,,,,,,,,,,1B,,,,,,,yes,,,2022-01-20T02:18:03.000Z,356815,group_9,395587,Prediction3/Open2,1,2022-01-20T01:36:59.000Z,,,,not measured,,True
9,Prediction3,4,Prediction_3,23,46,,,,,First,4_1B_prediction_5.mp3,5,,,,,,,,correct_left,,,,,,,,,,,,,,,,,,,,,,,,,,,,,,,,,Correct,,,,909.0,,,,,,,,,,,,,1B,,,,,,,yes,,,2022-01-20T02:18:03.000Z,356815,group_9,395587,Prediction3/Open2,1,2022-01-20T01:36:59.000Z,,,,not measured,,True
9,Prediction3,4,Prediction_3,24,52,,,,,First,3_1B_prediction_7.mp3,6,,,,,,,,incorrect_left,,,,,,,,,,,,,,,,,,,,,,,,,,,,,,,,,Incorrect,,,,1493.0,,,,,,,,,,,,,1B,,,,,,,yes,,,2022-01-20T02:18:03.000Z,356815,group_9,395587,Prediction3/Open2,1,2022-01-20T01:36:59.000Z,,,,not measured,,True
9,Prediction3,4,Prediction_3,25,48,,,,,First,4_1B_prediction_7.mp3,5,,,,,,,,correct_left,,,,,,,,,,,,,,,,,,,,,,,,,,,,,,,,,Correct,,,,1036.0,,,,,,,,,,,,,1B,,,,,,,yes,,,2022-01-20T02:18:03.000Z,356815,group_9,395587,Prediction3/Open2,1,2022-01-20T01:36:59.000Z,,,,not measured,,True
9,Prediction3,4,Prediction_3,26,9,,,,,First,4_8B_prediction_8.mp3,1,,,,,,,,correct_left,,,,,,,,,,,,,,,,,,,,,,,,,,,,,,,,,Correct,,,,820.0,,,,,,,,,,,,,8B,,,,,,,yes,,,2022-01-20T02:18:03.000Z,356815,group_9,395587,Prediction3/Open2,1,2022-01-20T01:36:59.000Z,,,,not measured,,True
9,Prediction3,4,Prediction_3,27,1,,,,,First,3_8B_prediction_6.mp3,1,,,,,,,,correct_left,,,,,,,,,,,,,,,,,,,,,,,,,,,,,,,,,Correct,,,,619.0,,,,,,,,,,,,,8B,,,,,,,yes,,,2022-01-20T02:18:03.000Z,356815,group_9,395587,Prediction3/Open2,1,2022-01-20T01:36:59.000Z,,,,not measured,,True
9,Prediction3,4,Prediction_3,28,29,,,,,Second,4_2B_prediction_8.mp3,3,,,,,,,,correct_left,,,,,,,,,,,,,,,,,,,,,,,,,,,,,,,,,Incorrect,,,,1639.0,,,,,,,,,,,,,2B,,,,,,,yes,,,2022-01-20T02:18:03.000Z,356815,group_9,395587,Prediction3/Open2,1,2022-01-20T01:36:59.000Z,,,,not measured,,True
9,Prediction3,4,Prediction_3,29,16,,,,,Second,4_8B_prediction_5.mp3,2,,,,,,,,incorrect_left,,,,,,,,,,,,,,,,,,,,,,,,,,,,,,,,,Correct,,,,699.0,,,,,,,,,,,,,8B,,,,,,,yes,,,2022-01-20T02:18:03.000Z,356815,group_9,395587,Prediction3/Open2,1,2022-01-20T01:36:59.000Z,,,,not measured,,True
9,Prediction3,4,Prediction_3,30,57,,,,,First,4_1B_prediction_6.mp3,6,,,,,,,,incorrect_left,,,,,,,,,,,,,,,,,,,,,,,,,,,,,,,,,Incorrect,,,,1392.0,,,,,,,,,,,,,1B,,,,,,,yes,,,2022-01-20T02:18:03.000Z,356815,group_9,395587,Prediction3/Open2,1,2022-01-20T01:36:59.000Z,,,,not measured,,True
9,Prediction3,3,Ready?,1,1,,,,,,,1,,,,,,,,,,,,,,,,,,,,,,,,,,,,,,,,,,,,,,,,,,,,,,,,,,,,,,,,,,,,,,,,,yes,,,2022-01-20T02:18:03.000Z,356815,group_9,395587,Prediction3/Open2,1,2022-01-20T01:36:59.000Z,,,,not measured,,True
9,Prediction3,2,Practice_Prediction,1,1,,,,,First,,1,,,,,,,,,,correct_incorrect,,,,,,,,,,,,,,,,,,,,,,,,,,,,,,,Correct,,,,2391.0,,,,,,,,,,,,,,,,,,,,yes,,,2022-01-20T02:18:03.000Z,356815,group_9,395587,Prediction3/Open2,1,2022-01-20T01:36:59.000Z,,,,not measured,,True
9,Prediction3,2,Practice_Prediction,2,3,,,,,,,1,,,,,,,,,,correct_incorrect,,,,,,,,,,,,,,,,,,,,,,,,,,,,,,,,,,,,,,,,,,,,,,,,,,,,,,,yes,,,2022-01-20T02:18:03.000Z,356815,group_9,395587,Prediction3/Open2,1,2022-01-20T01:36:59.000Z,,,,not measured,,True
9,Prediction3,2,Practice_Prediction,3,5,,,,,Second,,2,,,,,,,,,,incorrect_correct,,,,,,,,,,,,,,,,,,,,,,,,,,,,,,,Correct,,,,1738.0,,,,,,,,,,,,,,,,,,,,yes,,,2022-01-20T02:18:03.000Z,356815,group_9,395587,Prediction3/Open2,1,2022-01-20T01:36:59.000Z,,,,not measured,,True
9,Prediction3,1,Instructions_Prediction,1,1,,,,,,,1,,,,,,,,,,,,,,,,,,,,,,,,,,,,,,,,,,,,,,,,,,,,,,,,,,,,,,,,,,,,,,,,,yes,,,2022-01-20T02:18:03.000Z,356815,group_9,395587,Prediction3/Open2,1,2022-01-20T01:36:59.000Z,,,,not measured,,True
7,AP_Screen,3,imported_AP_eval,1,1,,,,,,,1,,,,,,,,,,,,,,,,,,,,,,,,,,,,,,,0.0,,,,,,,,,,,,,,,,,,,,,,,,,,,,,,,,,,yes,,,2022-01-20T02:18:03.000Z,356815,group_9,395587,Prediction3/Open2,1,2022-01-20T01:36:59.000Z,,,,not measured,,True
7,AP_Screen,2,imported_AP_headphone test,1,4,,,,,,,4,,,,,,,,,,,,one,,,,,,,,,,,,,,,1.0,,,,0.0,,,,,,,,,,,,,,,,,,,,,,,,,,,,,,,,S_I_O,,yes,,,2022-01-20T02:18:03.000Z,356815,group_9,395587,Prediction3/Open2,1,2022-01-20T01:36:59.000Z,,,,not measured,,True
7,AP_Screen,2,imported_AP_headphone test,2,1,,,,,,,1,,,,,,,,,,,,three,,,,,,,,,,,,,,,1.0,,,,0.0,,,,,,,,,,,,,,,,,,,,,,,,,,,,,,,,I_O_S,,yes,,,2022-01-20T02:18:03.000Z,356815,group_9,395587,Prediction3/Open2,1,2022-01-20T01:36:59.000Z,,,,not measured,,True
7,AP_Screen,2,imported_AP_headphone test,3,2,,,,,,,2,,,,,,,,,,,,two,,,,,,,,,,,,,,,1.0,,,,0.0,,,,,,,,,,,,,,,,,,,,,,,,,,,,,,,,I_S_O,,yes,,,2022-01-20T02:18:03.000Z,356815,group_9,395587,Prediction3/Open2,1,2022-01-20T01:36:59.000Z,,,,not measured,,True
7,AP_Screen,2,imported_AP_headphone test,4,6,,,,,,,6,,,,,,,,,,,,three,,,,,,,,,,,,,,,1.0,,,,0.0,,,,,,,,,,,,,,,,,,,,,,,,,,,,,,,,O_I_S,,yes,,,2022-01-20T02:18:03.000Z,356815,group_9,395587,Prediction3/Open2,1,2022-01-20T01:36:59.000Z,,,,not measured,,True
7,AP_Screen,2,imported_AP_headphone test,5,3,,,,,,,3,,,,,,,,,,,,one,,,,,,,,,,,,,,,1.0,,,,0.0,,,,,,,,,,,,,,,,,,,,,,,,,,,,,,,,S_O_I,,yes,,,2022-01-20T02:18:03.000Z,356815,group_9,395587,Prediction3/Open2,1,2022-01-20T01:36:59.000Z,,,,not measured,,True
7,AP_Screen,2,imported_AP_headphone test,6,5,,,,,,,5,,,,,,,,,,,,two,,,,,,,,,,,,,,,1.0,,,,0.0,,,,,,,,,,,,,,,,,,,,,,,,,,,,,,,,O_S_I,,yes,,,2022-01-20T02:18:03.000Z,356815,group_9,395587,Prediction3/Open2,1,2022-01-20T01:36:59.000Z,,,,not measured,,True
7,AP_Screen,1,imported_AP_instruction,1,1,,,,,,,1,,,,,,,,,,,,,,,,,,,,,,,,,,,,,,,,,,,,,,,,,,,,,,,,,,,,,,,,,,,,,,,,,yes,,,2022-01-20T02:18:03.000Z,356815,group_9,395587,Prediction3/Open2,1,2022-01-20T01:36:59.000Z,,,,not measured,,True
6,HP_Screen,3,imported_HP Evaluation,1,1,,,,,,,1,,,,,,,,,,,,,,0.0,,,,,,,,,,,,,,,,,,,,,,,,,,,,,,,,,,,,,,,,,,,,,,,,,,,yes,,,2022-01-20T02:18:03.000Z,356815,group_9,395587,Prediction3/Open2,1,2022-01-20T01:36:59.000Z,,,,not measured,,True
6,HP_Screen,2,imported_HP Trials,1,2,,,,,,,1,,,,,,,,,,,,,,0.0,,,"""times=;;;;;;;;;;;;;;;;;---values=;;;;;;;;;;;;;;;;;""",hp1.1.flac,,,,,,,,,,,,,,,,,,,,,,,choice 1,,,,,,,,,,,,,,,,,,,hp1.1.flac,,,,,yes,,,2022-01-20T02:18:03.000Z,356815,group_9,395587,Prediction3/Open2,1,2022-01-20T01:36:59.000Z,,,,not measured,,True
6,HP_Screen,2,imported_HP Trials,2,1,,,,,,,1,,,,,,,,,,,,,,0.0,,,"""times=;;;;;;;;;;;;;;;;;---values=;;;;;;;;;;;;;;;;;""",hp4.1.flac,,,,,,,,,,,,,,,,,,,,,,,choice 1,,,,,,,,,,,,,,,,,,,hp4.1.flac,,,,,yes,,,2022-01-20T02:18:03.000Z,356815,group_9,395587,Prediction3/Open2,1,2022-01-20T01:36:59.000Z,,,,not measured,,True
6,HP_Screen,2,imported_HP Trials,3,4,,,,,,,1,,,,,,,,,,,,,,0.0,,,"""times=;;;;;;;;;;;;;;;;;---values=;;;;;;;;;;;;;;;;;""",hp2.2.flac,,,,,,,,,,,,,,,,,,,,,,,choice 2,,,,,,,,,,,,,,,,,,,hp2.2.flac,,,,,yes,,,2022-01-20T02:18:03.000Z,356815,group_9,395587,Prediction3/Open2,1,2022-01-20T01:36:59.000Z,,,,not measured,,True
6,HP_Screen,2,imported_HP Trials,4,5,,,,,,,1,,,,,,,,,,,,,,0.0,,,"""times=;;;;;;;;;;;;;;;;;---values=;;;;;;;;;;;;;;;;;""",hp3.3.flac,,,,,,,,,,,,,,,,,,,,,,,choice 3,,,,,,,,,,,,,,,,,,,hp3.3.flac,,,,,yes,,,2022-01-20T02:18:03.000Z,356815,group_9,395587,Prediction3/Open2,1,2022-01-20T01:36:59.000Z,,,,not measured,,True
6,HP_Screen,2,imported_HP Trials,5,3,,,,,,,1,,,,,,,,,,,,,,0.0,,,"""times=;;;;;;;;;;;;;;;;;---values=;;;;;;;;;;;;;;;;;""",hp5.1.flac,,,,,,,,,,,,,,,,,,,,,,,choice 1,,,,,,,,,,,,,,,,,,,hp5.1.flac,,,,,yes,,,2022-01-20T02:18:03.000Z,356815,group_9,395587,Prediction3/Open2,1,2022-01-20T01:36:59.000Z,,,,not measured,,True
6,HP_Screen,2,imported_HP Trials,6,6,,,,,,,1,,,,,,,,,,,,,,0.0,,,"""times=;;;;;;;;;;;;;;;;;---values=;;;;;;;;;;;;;;;;;""",hp1.3.flac,,,,,,,,,,,,,,,,,,,,,,,choice 3,,,,,,,,,,,,,,,,,,,hp1.3.flac,,,,,yes,,,2022-01-20T02:18:03.000Z,356815,group_9,395587,Prediction3/Open2,1,2022-01-20T01:36:59.000Z,,,,not measured,,True
6,HP_Screen,1,imported_HP Instructions,1,1,,,,,,,1,,,,,,,,,,,,,,,1.0,,,,,,,,,,,,,,,,,,,,,,,,,,,,,,,,,,,,,,,,,,,,,,,,,,yes,,,2022-01-20T02:18:03.000Z,356815,group_9,395587,Prediction3/Open2,1,2022-01-20T01:36:59.000Z,,,,not measured,,True
4,GenInstructPredOpen,1,InstructionsPredOpen,1,1,,,,,,,1,,,,,,,,,,,,,,,,,,,,,,,,,,,,,,,,,,,,,,,,,,,,,,,,,,,,,,,,,,,,,,,,,yes,,,2022-01-20T02:18:03.000Z,356815,group_9,395587,Prediction3/Open2,1,2022-01-20T01:36:59.000Z,,,,not measured,,True
2,Consent,1,Consent,1,1,,,,,,,1,,,,,,,,,,,,,,,,,,,,,,,,,,,,,,,,,,,,,,,,,,,,,,,,,,,,,,,,,,,,,,,,,yes,,,2022-01-20T02:18:03.000Z,356815,group_9,395587,Prediction3/Open2,1,2022-01-20T01:36:59.000Z,,,,not measured,,True
