Block_Nr,Block_Name,Task_Nr,Task_Name,Trial_Nr,Trial_Id,ab_pitch,age_range,answer,best_instru,choice,clip,Condition_Id,conditions,consent,correct_incorrect_m_2,correct_incorrect_m_3,correct_incorrect_mem_1,correct_incorrect_p_1,correct_incorrect_p_2,correct_incorrect_p_3,correct_incorrect_practice_m,correct_incorrect_practice_p,correctCount,decision,earworm,errorCount,exampleCount,familiarity,fileArray,filePick,Frequenc,genre,genre_3,genre_4,hour,imagery,imagery_2,Instr,isCorrect,listen_time,music_theory,name_instru,nrErrors,num_instru,participant_choice,participant_choice_2,participant_choice2,participant_spacePress,participant_spacePress2,played_notplayed,practice_catseg_scramble,relative_pitch,response,response_seg,response_seg2,response_Time2,responseTime,retestCount,scramble_cat_1,scramble_cat_3,scramble_cat_4,scramble_catseg_4,scramble_level,scramble_m_1,scramble_m_2,scramble_m_3,scramble_open_3,scramble_p_1,scramble_p_2,scramble_p_3,set1response,soundName,strategy,time_atClipStart1,toneSequence,always_fullscreen,completed,crowdsourcing_code,crowdsourcing_subj_id,end_time,exp_subject_id,group_name,rec_session_id,session_name,session_nr,start_time,subj_counter_global,subj_counter_per_group,subject_code,time_delay_offset,time_measure_std,unlocked
13,Post-Survey,1,Post-Survey,1,1,No,"violin= 7-15, classical guitar=20-21",,Violin,,,1,,,,,,,,,,,,,5.0,,,2.0,,,Occasionally,Metal,Classical music,Eletronic,5 or more hours,,5.0,1 year,,30-60 min,6-9 years,"Violin, Classical guitar",,2.0,,,,,,option_1,,Yes,,,,,,,,,,,,,,,,,,,,,"I was like a maestro conducting using time signiatures with my hand counting the beats, mainly 4/4 and 3/4, and with the other hand counting the bars so i know if it changed and 2,4 or 16.",,,,yes,,,2022-01-26T15:10:41.000Z,362366,group_11,403033,Prediction2/Cat.3,1,2022-01-26T14:12:42.000Z,,,,not measured,,True
11,CategorizationSeg_3,4,CategorizationSeg_3,1,14,,,,,,,4,,,,,,,,,,,,,,,,,,,,,,,,,,,,,,,,,,Every 4 seconds (every 2 measures),,,,,,,,,Incorrect,2524.0,,,,1B,,,,,,,,,,,,,,,,,yes,,,2022-01-26T15:10:41.000Z,362366,group_11,403033,Prediction2/Cat.3,1,2022-01-26T14:12:42.000Z,,,,not measured,,True
11,CategorizationSeg_3,4,CategorizationSeg_3,2,4,,,,,,,1,,,,,,,,,,,,,,,,,,,,,,,,,,,,,,,,,Never,Never,,,,,,,,Correct,Correct,938.0,963.0,,,intact,,,,,,,,,,,,,,,,,yes,,,2022-01-26T15:10:41.000Z,362366,group_11,403033,Prediction2/Cat.3,1,2022-01-26T14:12:42.000Z,,,,not measured,,True
11,CategorizationSeg_3,4,CategorizationSeg_3,3,1,,,,,,,1,,,,,,,,,,,,,,,,,,,,,,,,,,,,,,,,,Never,Every 16 seconds (every 8 measures),,,,,,,,Correct,Incorrect,2879.0,2331.0,,,intact,,,,,,,,,,,,,,,,,yes,,,2022-01-26T15:10:41.000Z,362366,group_11,403033,Prediction2/Cat.3,1,2022-01-26T14:12:42.000Z,,,,not measured,,True
11,CategorizationSeg_3,4,CategorizationSeg_3,4,11,,,,,,,3,,,,,,,,,,,,,,,,,,,,,,,,,,,,,,,,,Every 4 seconds (every 2 measures),Every 2 seconds (every 1 measure),,,,,,,,Correct,Incorrect,1451.0,2393.0,,,2B,,,,,,,,,,,,,,,,,yes,,,2022-01-26T15:10:41.000Z,362366,group_11,403033,Prediction2/Cat.3,1,2022-01-26T14:12:42.000Z,,,,not measured,,True
11,CategorizationSeg_3,4,CategorizationSeg_3,5,13,,,,,,,4,,,,,,,,,,,,,,,,,,,,,,,,,,,,,,,,,Every 2 seconds (every 1 measure),Every 2 seconds (every 1 measure),,,,,,,,Correct,Correct,1699.0,1229.0,,,1B,,,,,,,,,,,,,,,,,yes,,,2022-01-26T15:10:41.000Z,362366,group_11,403033,Prediction2/Cat.3,1,2022-01-26T14:12:42.000Z,,,,not measured,,True
11,CategorizationSeg_3,4,CategorizationSeg_3,6,7,,,,,,,2,,,,,,,,,,,,,,,,,,,,,,,,,,,,,,,,,Every 4 seconds (every 2 measures),Every 16 seconds (every 8 measures),,,,,,,,Incorrect,Correct,906.0,3533.0,,,8B,,,,,,,,,,,,,,,,,yes,,,2022-01-26T15:10:41.000Z,362366,group_11,403033,Prediction2/Cat.3,1,2022-01-26T14:12:42.000Z,,,,not measured,,True
11,CategorizationSeg_3,4,CategorizationSeg_3,7,12,,,,,,,3,,,,,,,,,,,,,,,,,,,,,,,,,,,,,,,,,Every 4 seconds (every 2 measures),Every 4 seconds (every 2 measures),,,,,,,,Correct,Correct,976.0,1424.0,,,2B,,,,,,,,,,,,,,,,,yes,,,2022-01-26T15:10:41.000Z,362366,group_11,403033,Prediction2/Cat.3,1,2022-01-26T14:12:42.000Z,,,,not measured,,True
11,CategorizationSeg_3,4,CategorizationSeg_3,8,8,,,,,,,2,,,,,,,,,,,,,,,,,,,,,,,,,,,,,,,,,Every 16 seconds (every 8 measures),Every 16 seconds (every 8 measures),,,,,,,,Correct,Correct,999.0,2392.0,,,8B,,,,,,,,,,,,,,,,,yes,,,2022-01-26T15:10:41.000Z,362366,group_11,403033,Prediction2/Cat.3,1,2022-01-26T14:12:42.000Z,,,,not measured,,True
11,CategorizationSeg_3,3,Ready?,1,1,,,,,,,1,,,,,,,,,,,,,,,,,,,,,,,,,,,,,,,,,,,,,,,,,,,,,,,,,,,,,,,,,,,,,,,,,yes,,,2022-01-26T15:10:41.000Z,362366,group_11,403033,Prediction2/Cat.3,1,2022-01-26T14:12:42.000Z,,,,not measured,,True
11,CategorizationSeg_3,2,Practice_Categorization,1,1,,,,,,,1,,,,,,,,,,,,,,,,,,,,,,,,,,,,,,,,,Every 16 seconds (every 8 measures),Every 16 seconds (every 8 measures),,,,,intact,,,Incorrect,Incorrect,8102.0,12876.0,,,,,,,,,,,,,,,,,,,,yes,,,2022-01-26T15:10:41.000Z,362366,group_11,403033,Prediction2/Cat.3,1,2022-01-26T14:12:42.000Z,,,,not measured,,True
11,CategorizationSeg_3,1,Instructions for Categorization Seg.,1,1,,,,,,,1,,,,,,,,,,,,,,,,,,,,,,,,,,,,,,,,,,,,,,,,,,,,,,,,,,,,,,,,,,,,,,,,,yes,,,2022-01-26T15:10:41.000Z,362366,group_11,403033,Prediction2/Cat.3,1,2022-01-26T14:12:42.000Z,,,,not measured,,True
9,Prediction 2,4,Prediction_2,1,34,,,,,Second,2_2B_prediction_7.mp3,4,,,,,,,incorrect_left,,,,,,,,,,,,,,,,,,,,,,,,,,,,,,,,,,Correct,,,,1039.0,,,,,,,,,,,,2B,,,,,,,,yes,,,2022-01-26T15:10:41.000Z,362366,group_11,403033,Prediction2/Cat.3,1,2022-01-26T14:12:42.000Z,,,,not measured,,True
9,Prediction 2,4,Prediction_2,2,4,,,,,Second,2_8B_prediction_7.mp3,1,,,,,,,correct_left,,,,,,,,,,,,,,,,,,,,,,,,,,,,,,,,,,Incorrect,,,,3842.0,,,,,,,,,,,,8B,,,,,,,,yes,,,2022-01-26T15:10:41.000Z,362366,group_11,403033,Prediction2/Cat.3,1,2022-01-26T14:12:42.000Z,,,,not measured,,True
9,Prediction 2,4,Prediction_2,3,44,,,,,First,2_1B_prediction_7.mp3,5,,,,,,,correct_left,,,,,,,,,,,,,,,,,,,,,,,,,,,,,,,,,,Correct,,,,844.0,,,,,,,,,,,,1B,,,,,,,,yes,,,2022-01-26T15:10:41.000Z,362366,group_11,403033,Prediction2/Cat.3,1,2022-01-26T14:12:42.000Z,,,,not measured,,True
9,Prediction 2,4,Prediction_2,4,60,,,,,Second,4_1B_prediction_5.mp3,6,,,,,,,incorrect_left,,,,,,,,,,,,,,,,,,,,,,,,,,,,,,,,,,Correct,,,,1649.0,,,,,,,,,,,,1B,,,,,,,,yes,,,2022-01-26T15:10:41.000Z,362366,group_11,403033,Prediction2/Cat.3,1,2022-01-26T14:12:42.000Z,,,,not measured,,True
9,Prediction 2,4,Prediction_2,5,35,,,,,Second,2_2B_prediction_8.mp3,4,,,,,,,incorrect_left,,,,,,,,,,,,,,,,,,,,,,,,,,,,,,,,,,Correct,,,,2544.0,,,,,,,,,,,,2B,,,,,,,,yes,,,2022-01-26T15:10:41.000Z,362366,group_11,403033,Prediction2/Cat.3,1,2022-01-26T14:12:42.000Z,,,,not measured,,True
9,Prediction 2,4,Prediction_2,6,1,,,,,First,2_8B_prediction_4.mp3,1,,,,,,,correct_left,,,,,,,,,,,,,,,,,,,,,,,,,,,,,,,,,,Correct,,,,953.0,,,,,,,,,,,,8B,,,,,,,,yes,,,2022-01-26T15:10:41.000Z,362366,group_11,403033,Prediction2/Cat.3,1,2022-01-26T14:12:42.000Z,,,,not measured,,True
9,Prediction 2,4,Prediction_2,7,19,,,,,Second,4_8B_prediction_4.mp3,2,,,,,,,incorrect_left,,,,,,,,,,,,,,,,,,,,,,,,,,,,,,,,,,Correct,,,,2736.0,,,,,,,,,,,,8B,,,,,,,,yes,,,2022-01-26T15:10:41.000Z,362366,group_11,403033,Prediction2/Cat.3,1,2022-01-26T14:12:42.000Z,,,,not measured,,True
9,Prediction 2,4,Prediction_2,8,30,,,,,First,4_2B_prediction_5.mp3,3,,,,,,,correct_left,,,,,,,,,,,,,,,,,,,,,,,,,,,,,,,,,,Correct,,,,853.0,,,,,,,,,,,,2B,,,,,,,,yes,,,2022-01-26T15:10:41.000Z,362366,group_11,403033,Prediction2/Cat.3,1,2022-01-26T14:12:42.000Z,,,,not measured,,True
9,Prediction 2,4,Prediction_2,9,26,,,,,First,4_2B_prediction_1.mp3,3,,,,,,,correct_left,,,,,,,,,,,,,,,,,,,,,,,,,,,,,,,,,,Correct,,,,1616.0,,,,,,,,,,,,2B,,,,,,,,yes,,,2022-01-26T15:10:41.000Z,362366,group_11,403033,Prediction2/Cat.3,1,2022-01-26T14:12:42.000Z,,,,not measured,,True
9,Prediction 2,4,Prediction_2,10,57,,,,,First,4_1B_prediction_2.mp3,6,,,,,,,incorrect_left,,,,,,,,,,,,,,,,,,,,,,,,,,,,,,,,,,Incorrect,,,,971.0,,,,,,,,,,,,1B,,,,,,,,yes,,,2022-01-26T15:10:41.000Z,362366,group_11,403033,Prediction2/Cat.3,1,2022-01-26T14:12:42.000Z,,,,not measured,,True
9,Prediction 2,4,Prediction_2,11,51,,,,,Second,2_1B_prediction_4.mp3,6,,,,,,,incorrect_left,,,,,,,,,,,,,,,,,,,,,,,,,,,,,,,,,,Correct,,,,1173.0,,,,,,,,,,,,1B,,,,,,,,yes,,,2022-01-26T15:10:41.000Z,362366,group_11,403033,Prediction2/Cat.3,1,2022-01-26T14:12:42.000Z,,,,not measured,,True
9,Prediction 2,4,Prediction_2,12,3,,,,,First,2_8B_prediction_6.mp3,1,,,,,,,correct_left,,,,,,,,,,,,,,,,,,,,,,,,,,,,,,,,,,Correct,,,,1420.0,,,,,,,,,,,,8B,,,,,,,,yes,,,2022-01-26T15:10:41.000Z,362366,group_11,403033,Prediction2/Cat.3,1,2022-01-26T14:12:42.000Z,,,,not measured,,True
9,Prediction 2,4,Prediction_2,13,56,,,,,Second,4_1B_prediction_1.mp3,6,,,,,,,incorrect_left,,,,,,,,,,,,,,,,,,,,,,,,,,,,,,,,,,Correct,,,,583.0,,,,,,,,,,,,1B,,,,,,,,yes,,,2022-01-26T15:10:41.000Z,362366,group_11,403033,Prediction2/Cat.3,1,2022-01-26T14:12:42.000Z,,,,not measured,,True
9,Prediction 2,4,Prediction_2,14,21,,,,,First,2_2B_prediction_4.mp3,3,,,,,,,correct_left,,,,,,,,,,,,,,,,,,,,,,,,,,,,,,,,,,Correct,,,,2866.0,,,,,,,,,,,,2B,,,,,,,,yes,,,2022-01-26T15:10:41.000Z,362366,group_11,403033,Prediction2/Cat.3,1,2022-01-26T14:12:42.000Z,,,,not measured,,True
9,Prediction 2,4,Prediction_2,15,39,,,,,Second,4_2B_prediction_4.mp3,4,,,,,,,incorrect_left,,,,,,,,,,,,,,,,,,,,,,,,,,,,,,,,,,Correct,,,,1713.0,,,,,,,,,,,,2B,,,,,,,,yes,,,2022-01-26T15:10:41.000Z,362366,group_11,403033,Prediction2/Cat.3,1,2022-01-26T14:12:42.000Z,,,,not measured,,True
9,Prediction 2,4,Prediction_2,16,12,,,,,Second,2_8B_prediction_5.mp3,2,,,,,,,incorrect_left,,,,,,,,,,,,,,,,,,,,,,,,,,,,,,,,,,Correct,,,,1958.0,,,,,,,,,,,,8B,,,,,,,,yes,,,2022-01-26T15:10:41.000Z,362366,group_11,403033,Prediction2/Cat.3,1,2022-01-26T14:12:42.000Z,,,,not measured,,True
9,Prediction 2,4,Prediction_2,17,22,,,,,Second,2_2B_prediction_5.mp3,3,,,,,,,correct_left,,,,,,,,,,,,,,,,,,,,,,,,,,,,,,,,,,Incorrect,,,,837.0,,,,,,,,,,,,2B,,,,,,,,yes,,,2022-01-26T15:10:41.000Z,362366,group_11,403033,Prediction2/Cat.3,1,2022-01-26T14:12:42.000Z,,,,not measured,,True
9,Prediction 2,4,Prediction_2,18,38,,,,,First,4_2B_prediction_3.mp3,4,,,,,,,incorrect_left,,,,,,,,,,,,,,,,,,,,,,,,,,,,,,,,,,Incorrect,,,,3345.0,,,,,,,,,,,,2B,,,,,,,,yes,,,2022-01-26T15:10:41.000Z,362366,group_11,403033,Prediction2/Cat.3,1,2022-01-26T14:12:42.000Z,,,,not measured,,True
9,Prediction 2,4,Prediction_2,19,18,,,,,Second,4_8B_prediction_3.mp3,2,,,,,,,incorrect_left,,,,,,,,,,,,,,,,,,,,,,,,,,,,,,,,,,Correct,,,,618.0,,,,,,,,,,,,8B,,,,,,,,yes,,,2022-01-26T15:10:41.000Z,362366,group_11,403033,Prediction2/Cat.3,1,2022-01-26T14:12:42.000Z,,,,not measured,,True
9,Prediction 2,4,Prediction_2,20,5,,,,,First,2_8B_prediction_8.mp3,1,,,,,,,correct_left,,,,,,,,,,,,,,,,,,,,,,,,,,,,,,,,,,Correct,,,,1140.0,,,,,,,,,,,,8B,,,,,,,,yes,,,2022-01-26T15:10:41.000Z,362366,group_11,403033,Prediction2/Cat.3,1,2022-01-26T14:12:42.000Z,,,,not measured,,True
9,Prediction 2,4,Prediction_2,21,23,,,,,Second,2_2B_prediction_6.mp3,3,,,,,,,correct_left,,,,,,,,,,,,,,,,,,,,,,,,,,,,,,,,,,Incorrect,,,,974.0,,,,,,,,,,,,2B,,,,,,,,yes,,,2022-01-26T15:10:41.000Z,362366,group_11,403033,Prediction2/Cat.3,1,2022-01-26T14:12:42.000Z,,,,not measured,,True
9,Prediction 2,4,Prediction_2,22,58,,,,,Second,4_1B_prediction_3.mp3,6,,,,,,,incorrect_left,,,,,,,,,,,,,,,,,,,,,,,,,,,,,,,,,,Correct,,,,2935.0,,,,,,,,,,,,1B,,,,,,,,yes,,,2022-01-26T15:10:41.000Z,362366,group_11,403033,Prediction2/Cat.3,1,2022-01-26T14:12:42.000Z,,,,not measured,,True
9,Prediction 2,4,Prediction_2,23,6,,,,,,4_8B_prediction_1.mp3,1,,,,,,,correct_left,,,,,,,,,,,,,,,,,,,,,,,,,,,,,,,,,,,,,,,,,,,,,,,,,,8B,,,,,,,,yes,,,2022-01-26T15:10:41.000Z,362366,group_11,403033,Prediction2/Cat.3,1,2022-01-26T14:12:42.000Z,,,,not measured,,True
9,Prediction 2,4,Prediction_2,24,43,,,,,First,2_1B_prediction_6.mp3,5,,,,,,,correct_left,,,,,,,,,,,,,,,,,,,,,,,,,,,,,,,,,,Correct,,,,3253.0,,,,,,,,,,,,1B,,,,,,,,yes,,,2022-01-26T15:10:41.000Z,362366,group_11,403033,Prediction2/Cat.3,1,2022-01-26T14:12:42.000Z,,,,not measured,,True
9,Prediction 2,4,Prediction_2,25,49,,,,,Second,4_1B_prediction_4.mp3,5,,,,,,,correct_left,,,,,,,,,,,,,,,,,,,,,,,,,,,,,,,,,,Incorrect,,,,3992.0,,,,,,,,,,,,1B,,,,,,,,yes,,,2022-01-26T15:10:41.000Z,362366,group_11,403033,Prediction2/Cat.3,1,2022-01-26T14:12:42.000Z,,,,not measured,,True
9,Prediction 2,4,Prediction_2,26,55,,,,,First,2_1B_prediction_8.mp3,6,,,,,,,incorrect_left,,,,,,,,,,,,,,,,,,,,,,,,,,,,,,,,,,Incorrect,,,,1973.0,,,,,,,,,,,,1B,,,,,,,,yes,,,2022-01-26T15:10:41.000Z,362366,group_11,403033,Prediction2/Cat.3,1,2022-01-26T14:12:42.000Z,,,,not measured,,True
9,Prediction 2,4,Prediction_2,27,52,,,,,First,2_1B_prediction_5.mp3,6,,,,,,,incorrect_left,,,,,,,,,,,,,,,,,,,,,,,,,,,,,,,,,,Incorrect,,,,1473.0,,,,,,,,,,,,1B,,,,,,,,yes,,,2022-01-26T15:10:41.000Z,362366,group_11,403033,Prediction2/Cat.3,1,2022-01-26T14:12:42.000Z,,,,not measured,,True
9,Prediction 2,4,Prediction_2,28,17,,,,,Second,4_8B_prediction_2.mp3,2,,,,,,,incorrect_left,,,,,,,,,,,,,,,,,,,,,,,,,,,,,,,,,,Correct,,,,883.0,,,,,,,,,,,,8B,,,,,,,,yes,,,2022-01-26T15:10:41.000Z,362366,group_11,403033,Prediction2/Cat.3,1,2022-01-26T14:12:42.000Z,,,,not measured,,True
9,Prediction 2,4,Prediction_2,29,27,,,,,First,4_2B_prediction_2.mp3,3,,,,,,,correct_left,,,,,,,,,,,,,,,,,,,,,,,,,,,,,,,,,,Correct,,,,1048.0,,,,,,,,,,,,2B,,,,,,,,yes,,,2022-01-26T15:10:41.000Z,362366,group_11,403033,Prediction2/Cat.3,1,2022-01-26T14:12:42.000Z,,,,not measured,,True
9,Prediction 2,4,Prediction_2,30,10,,,,,First,4_8B_prediction_8.mp3,1,,,,,,,correct_left,,,,,,,,,,,,,,,,,,,,,,,,,,,,,,,,,,Correct,,,,1077.0,,,,,,,,,,,,8B,,,,,,,,yes,,,2022-01-26T15:10:41.000Z,362366,group_11,403033,Prediction2/Cat.3,1,2022-01-26T14:12:42.000Z,,,,not measured,,True
9,Prediction 2,3,Ready?,1,1,,,,,,,1,,,,,,,,,,,,,,,,,,,,,,,,,,,,,,,,,,,,,,,,,,,,,,,,,,,,,,,,,,,,,,,,,yes,,,2022-01-26T15:10:41.000Z,362366,group_11,403033,Prediction2/Cat.3,1,2022-01-26T14:12:42.000Z,,,,not measured,,True
9,Prediction 2,2,Practice_Prediction,1,2,,,,,First,,1,,,,,,,,,,correct_incorrect,,,,,,,,,,,,,,,,,,,,,,,,,,,,,,,Correct,,,,1045.0,,,,,,,,,,,,,,,,,,,,yes,,,2022-01-26T15:10:41.000Z,362366,group_11,403033,Prediction2/Cat.3,1,2022-01-26T14:12:42.000Z,,,,not measured,,True
9,Prediction 2,2,Practice_Prediction,2,6,,,,,First,,2,,,,,,,,,,incorrect_correct,,,,,,,,,,,,,,,,,,,,,,,,,,,,,,,Incorrect,,,,1348.0,,,,,,,,,,,,,,,,,,,,yes,,,2022-01-26T15:10:41.000Z,362366,group_11,403033,Prediction2/Cat.3,1,2022-01-26T14:12:42.000Z,,,,not measured,,True
9,Prediction 2,2,Practice_Prediction,3,4,,,,,First,,2,,,,,,,,,,incorrect_correct,,,,,,,,,,,,,,,,,,,,,,,,,,,,,,,Incorrect,,,,1098.0,,,,,,,,,,,,,,,,,,,,yes,,,2022-01-26T15:10:41.000Z,362366,group_11,403033,Prediction2/Cat.3,1,2022-01-26T14:12:42.000Z,,,,not measured,,True
9,Prediction 2,1,Instructions_Prediction,1,1,,,,,,,1,,,,,,,,,,,,,,,,,,,,,,,,,,,,,,,,,,,,,,,,,,,,,,,,,,,,,,,,,,,,,,,,,yes,,,2022-01-26T15:10:41.000Z,362366,group_11,403033,Prediction2/Cat.3,1,2022-01-26T14:12:42.000Z,,,,not measured,,True
7,AP_Screen,3,imported_AP_eval,1,1,,,,,,,1,,,,,,,,,,,,,,,,,,,,,,,,,,,,,,,0.0,,,,,,,,,,,,,,,,,,,,,,,,,,,,,,,,,,yes,,,2022-01-26T15:10:41.000Z,362366,group_11,403033,Prediction2/Cat.3,1,2022-01-26T14:12:42.000Z,,,,not measured,,True
7,AP_Screen,2,imported_AP_headphone test,1,2,,,,,,,2,,,,,,,,,,,,two,,,,,,,,,,,,,,,1.0,,,,0.0,,,,,,,,,,,,,,,,,,,,,,,,,,,,,,,,I_S_O,,yes,,,2022-01-26T15:10:41.000Z,362366,group_11,403033,Prediction2/Cat.3,1,2022-01-26T14:12:42.000Z,,,,not measured,,True
7,AP_Screen,2,imported_AP_headphone test,2,1,,,,,,,1,,,,,,,,,,,,three,,,,,,,,,,,,,,,1.0,,,,0.0,,,,,,,,,,,,,,,,,,,,,,,,,,,,,,,,I_O_S,,yes,,,2022-01-26T15:10:41.000Z,362366,group_11,403033,Prediction2/Cat.3,1,2022-01-26T14:12:42.000Z,,,,not measured,,True
7,AP_Screen,2,imported_AP_headphone test,3,5,,,,,,,5,,,,,,,,,,,,two,,,,,,,,,,,,,,,1.0,,,,0.0,,,,,,,,,,,,,,,,,,,,,,,,,,,,,,,,O_S_I,,yes,,,2022-01-26T15:10:41.000Z,362366,group_11,403033,Prediction2/Cat.3,1,2022-01-26T14:12:42.000Z,,,,not measured,,True
7,AP_Screen,2,imported_AP_headphone test,4,3,,,,,,,3,,,,,,,,,,,,one,,,,,,,,,,,,,,,1.0,,,,0.0,,,,,,,,,,,,,,,,,,,,,,,,,,,,,,,,S_O_I,,yes,,,2022-01-26T15:10:41.000Z,362366,group_11,403033,Prediction2/Cat.3,1,2022-01-26T14:12:42.000Z,,,,not measured,,True
7,AP_Screen,2,imported_AP_headphone test,5,6,,,,,,,6,,,,,,,,,,,,three,,,,,,,,,,,,,,,1.0,,,,0.0,,,,,,,,,,,,,,,,,,,,,,,,,,,,,,,,O_I_S,,yes,,,2022-01-26T15:10:41.000Z,362366,group_11,403033,Prediction2/Cat.3,1,2022-01-26T14:12:42.000Z,,,,not measured,,True
7,AP_Screen,2,imported_AP_headphone test,6,4,,,,,,,4,,,,,,,,,,,,one,,,,,,,,,,,,,,,1.0,,,,0.0,,,,,,,,,,,,,,,,,,,,,,,,,,,,,,,,S_I_O,,yes,,,2022-01-26T15:10:41.000Z,362366,group_11,403033,Prediction2/Cat.3,1,2022-01-26T14:12:42.000Z,,,,not measured,,True
7,AP_Screen,1,imported_AP_instruction,1,1,,,,,,,1,,,,,,,,,,,,,,,,,,,,,,,,,,,,,,,,,,,,,,,,,,,,,,,,,,,,,,,,,,,,,,,,,yes,,,2022-01-26T15:10:41.000Z,362366,group_11,403033,Prediction2/Cat.3,1,2022-01-26T14:12:42.000Z,,,,not measured,,True
6,HP_Screen,3,imported_HP Evaluation,1,1,,,,,,,1,,,,,,,,,,,,,,0.0,,,,,,,,,,,,,,,,,,,,,,,,,,,,,,,,,,,,,,,,,,,,,,,,,,,yes,,,2022-01-26T15:10:41.000Z,362366,group_11,403033,Prediction2/Cat.3,1,2022-01-26T14:12:42.000Z,,,,not measured,,True
6,HP_Screen,2,imported_HP Trials,1,2,,,,,,,1,,,,,,,,,,,,,,0.0,,,"""times=;;;;;;;;;;;;;;;;;---values=;;;;;;;;;;;;;;;;;""",hp4.2.flac,,,,,,,,,,,,,,,,,,,,,,,choice 2,,,,,,,,,,,,,,,,,,,hp4.2.flac,,,,,yes,,,2022-01-26T15:10:41.000Z,362366,group_11,403033,Prediction2/Cat.3,1,2022-01-26T14:12:42.000Z,,,,not measured,,True
6,HP_Screen,2,imported_HP Trials,2,6,,,,,,,1,,,,,,,,,,,,,,0.0,,,"""times=;;;;;;;;;;;;;;;;;---values=;;;;;;;;;;;;;;;;;""",hp2.2.flac,,,,,,,,,,,,,,,,,,,,,,,choice 2,,,,,,,,,,,,,,,,,,,hp2.2.flac,,,,,yes,,,2022-01-26T15:10:41.000Z,362366,group_11,403033,Prediction2/Cat.3,1,2022-01-26T14:12:42.000Z,,,,not measured,,True
6,HP_Screen,2,imported_HP Trials,3,3,,,,,,,1,,,,,,,,,,,,,,0.0,,,"""times=;;;;;;;;;;;;;;;;;---values=;;;;;;;;;;;;;;;;;""",hp3.2.flac,,,,,,,,,,,,,,,,,,,,,,,choice 2,,,,,,,,,,,,,,,,,,,hp3.2.flac,,,,,yes,,,2022-01-26T15:10:41.000Z,362366,group_11,403033,Prediction2/Cat.3,1,2022-01-26T14:12:42.000Z,,,,not measured,,True
6,HP_Screen,2,imported_HP Trials,4,4,,,,,,,1,,,,,,,,,,,,,,0.0,,,"""times=;;;;;;;;;;;;;;;;;---values=;;;;;;;;;;;;;;;;;""",hp6.3.flac,,,,,,,,,,,,,,,,,,,,,,,choice 3,,,,,,,,,,,,,,,,,,,hp6.3.flac,,,,,yes,,,2022-01-26T15:10:41.000Z,362366,group_11,403033,Prediction2/Cat.3,1,2022-01-26T14:12:42.000Z,,,,not measured,,True
6,HP_Screen,2,imported_HP Trials,5,1,,,,,,,1,,,,,,,,,,,,,,0.0,,,"""times=;;;;;;;;;;;;;;;;;---values=;;;;;;;;;;;;;;;;;""",hp6.2.flac,,,,,,,,,,,,,,,,,,,,,,,choice 2,,,,,,,,,,,,,,,,,,,hp6.2.flac,,,,,yes,,,2022-01-26T15:10:41.000Z,362366,group_11,403033,Prediction2/Cat.3,1,2022-01-26T14:12:42.000Z,,,,not measured,,True
6,HP_Screen,2,imported_HP Trials,6,5,,,,,,,1,,,,,,,,,,,,,,0.0,,,"""times=;;;;;;;;;;;;;;;;;---values=;;;;;;;;;;;;;;;;;""",hp1.2.flac,,,,,,,,,,,,,,,,,,,,,,,choice 2,,,,,,,,,,,,,,,,,,,hp1.2.flac,,,,,yes,,,2022-01-26T15:10:41.000Z,362366,group_11,403033,Prediction2/Cat.3,1,2022-01-26T14:12:42.000Z,,,,not measured,,True
6,HP_Screen,1,imported_HP Instructions,1,1,,,,,,,1,,,,,,,,,,,,,,,3.0,,,,,,,,,,,,,,,,,,,,,,,,,,,,,,,,,,,,,,,,,,,,,,,,,,yes,,,2022-01-26T15:10:41.000Z,362366,group_11,403033,Prediction2/Cat.3,1,2022-01-26T14:12:42.000Z,,,,not measured,,True
4,GenInstructPredCat,1,InstructionsPredCat,1,1,,,,,,,1,,,,,,,,,,,,,,,,,,,,,,,,,,,,,,,,,,,,,,,,,,,,,,,,,,,,,,,,,,,,,,,,,yes,,,2022-01-26T15:10:41.000Z,362366,group_11,403033,Prediction2/Cat.3,1,2022-01-26T14:12:42.000Z,,,,not measured,,True
2,Consent,1,Consent,1,1,,,,,,,1,,,,,,,,,,,,,,,,,,,,,,,,,,,,,,,,,,,,,,,,,,,,,,,,,,,,,,,,,,,,,,,,,yes,,,2022-01-26T15:10:41.000Z,362366,group_11,403033,Prediction2/Cat.3,1,2022-01-26T14:12:42.000Z,,,,not measured,,True
