Block_Nr,Block_Name,Task_Nr,Task_Name,Trial_Nr,Trial_Id,ab_pitch,age_range,answer,best_instru,choice,clip,Condition_Id,conditions,consent,correct_incorrect_m_2,correct_incorrect_m_3,correct_incorrect_mem_1,correct_incorrect_p_1,correct_incorrect_p_2,correct_incorrect_p_3,correct_incorrect_practice_m,correct_incorrect_practice_p,correctCount,decision,earworm,errorCount,exampleCount,familiarity,fileArray,filePick,Frequenc,genre,genre_3,genre_4,hour,imagery,imagery_2,Instr,isCorrect,listen_time,music_theory,name_instru,nrErrors,num_instru,participant_choice,participant_choice_2,participant_choice2,participant_spacePress,participant_spacePress2,played_notplayed,practice_catseg_scramble,relative_pitch,response,response_seg,response_seg2,response_Time2,responseTime,retestCount,scramble_cat_1,scramble_cat_3,scramble_cat_4,scramble_catseg_4,scramble_level,scramble_m_1,scramble_m_2,scramble_m_3,scramble_open_3,scramble_p_1,scramble_p_2,scramble_p_3,set1response,soundName,strategy,time_atClipStart1,toneSequence,always_fullscreen,completed,crowdsourcing_code,crowdsourcing_subj_id,end_time,exp_subject_id,group_name,rec_session_id,session_name,session_nr,start_time,subj_counter_global,subj_counter_per_group,subject_code,time_delay_offset,time_measure_std,unlocked
13,Post-Survey,1,Post-Survey,1,1,No,15-22,,guitar,,,1,,,,,,,,,,,,,3.0,,,1.0,,,4-5 Days/Week,Hip-Hop,R&B,Pop,1.5 hours,,5.0,4-5 years,,15-30 min,1 year,"guitar, bass guitar",,2.0,,,,,,option_1,,Yes,,,,,,,,,,,,,,,,,,,,,Tried finding patterns that resembled rhythmically or melodically with each other,,,,yes,,,2022-01-26T15:10:48.000Z,362375,group_5,403043,Memory2/Cat.3,1,2022-01-26T14:22:32.000Z,,,,not measured,,True
11,CategorizationSeg_3,4,CategorizationSeg_3,1,1,,,,,,,1,,,,,,,,,,,,,,,,,,,,,,,,,,,,,,,,,Never,,,,,,,,,Correct,,,1166.0,,,intact,,,,,,,,,,,,,,,,,yes,,,2022-01-26T15:10:48.000Z,362375,group_5,403043,Memory2/Cat.3,1,2022-01-26T14:22:32.000Z,,,,not measured,,True
11,CategorizationSeg_3,4,CategorizationSeg_3,2,8,,,,,,,2,,,,,,,,,,,,,,,,,,,,,,,,,,,,,,,,,Every 4 seconds (every 2 measures),Every 16 seconds (every 8 measures),,,,,,,,Incorrect,Correct,1653.0,2999.0,,,8B,,,,,,,,,,,,,,,,,yes,,,2022-01-26T15:10:48.000Z,362375,group_5,403043,Memory2/Cat.3,1,2022-01-26T14:22:32.000Z,,,,not measured,,True
11,CategorizationSeg_3,4,CategorizationSeg_3,3,13,,,,,,,4,,,,,,,,,,,,,,,,,,,,,,,,,,,,,,,,,Every 2 seconds (every 1 measure),Every 2 seconds (every 1 measure),,,,,,,,Correct,Correct,687.0,858.0,,,1B,,,,,,,,,,,,,,,,,yes,,,2022-01-26T15:10:48.000Z,362375,group_5,403043,Memory2/Cat.3,1,2022-01-26T14:22:32.000Z,,,,not measured,,True
11,CategorizationSeg_3,4,CategorizationSeg_3,4,2,,,,,,,1,,,,,,,,,,,,,,,,,,,,,,,,,,,,,,,,,Never,Every 16 seconds (every 8 measures),,,,,,,,Correct,Incorrect,806.0,2345.0,,,intact,,,,,,,,,,,,,,,,,yes,,,2022-01-26T15:10:48.000Z,362375,group_5,403043,Memory2/Cat.3,1,2022-01-26T14:22:32.000Z,,,,not measured,,True
11,CategorizationSeg_3,4,CategorizationSeg_3,5,15,,,,,,,4,,,,,,,,,,,,,,,,,,,,,,,,,,,,,,,,,Every 2 seconds (every 1 measure),Every 2 seconds (every 1 measure),,,,,,,,Correct,Correct,2489.0,2314.0,,,1B,,,,,,,,,,,,,,,,,yes,,,2022-01-26T15:10:48.000Z,362375,group_5,403043,Memory2/Cat.3,1,2022-01-26T14:22:32.000Z,,,,not measured,,True
11,CategorizationSeg_3,4,CategorizationSeg_3,6,10,,,,,,,3,,,,,,,,,,,,,,,,,,,,,,,,,,,,,,,,,Every 4 seconds (every 2 measures),Every 4 seconds (every 2 measures),,,,,,,,Correct,Correct,1197.0,3287.0,,,2B,,,,,,,,,,,,,,,,,yes,,,2022-01-26T15:10:48.000Z,362375,group_5,403043,Memory2/Cat.3,1,2022-01-26T14:22:32.000Z,,,,not measured,,True
11,CategorizationSeg_3,4,CategorizationSeg_3,7,11,,,,,,,3,,,,,,,,,,,,,,,,,,,,,,,,,,,,,,,,,Every 4 seconds (every 2 measures),Every 2 seconds (every 1 measure),,,,,,,,Correct,Incorrect,2997.0,1024.0,,,2B,,,,,,,,,,,,,,,,,yes,,,2022-01-26T15:10:48.000Z,362375,group_5,403043,Memory2/Cat.3,1,2022-01-26T14:22:32.000Z,,,,not measured,,True
11,CategorizationSeg_3,4,CategorizationSeg_3,8,5,,,,,,,2,,,,,,,,,,,,,,,,,,,,,,,,,,,,,,,,,Every 4 seconds (every 2 measures),Every 4 seconds (every 2 measures),,,,,,,,Incorrect,Incorrect,2359.0,2228.0,,,8B,,,,,,,,,,,,,,,,,yes,,,2022-01-26T15:10:48.000Z,362375,group_5,403043,Memory2/Cat.3,1,2022-01-26T14:22:32.000Z,,,,not measured,,True
11,CategorizationSeg_3,3,Ready?,1,1,,,,,,,1,,,,,,,,,,,,,,,,,,,,,,,,,,,,,,,,,,,,,,,,,,,,,,,,,,,,,,,,,,,,,,,,,yes,,,2022-01-26T15:10:48.000Z,362375,group_5,403043,Memory2/Cat.3,1,2022-01-26T14:22:32.000Z,,,,not measured,,True
11,CategorizationSeg_3,2,Practice_Categorization,1,1,,,,,,,1,,,,,,,,,,,,,,,,,,,,,,,,,,,,,,,,,Every 4 seconds (every 2 measures),Every 16 seconds (every 8 measures),,,,,intact,,,Incorrect,Incorrect,8012.0,16345.0,,,,,,,,,,,,,,,,,,,,yes,,,2022-01-26T15:10:48.000Z,362375,group_5,403043,Memory2/Cat.3,1,2022-01-26T14:22:32.000Z,,,,not measured,,True
11,CategorizationSeg_3,1,Instructions for Categorization Seg.,1,1,,,,,,,1,,,,,,,,,,,,,,,,,,,,,,,,,,,,,,,,,,,,,,,,,,,,,,,,,,,,,,,,,,,,,,,,,yes,,,2022-01-26T15:10:48.000Z,362375,group_5,403043,Memory2/Cat.3,1,2022-01-26T14:22:32.000Z,,,,not measured,,True
9,Memory 2,4,Memory_2,1,4,,,,,First,2_8B_memory_7.mp3,1,,,correct_left,,,,,,,,,,,,,,,,,,,,,,,,,,,,,,,,,,,,,,Correct,,,,1591.0,,,,,,,,8B,,,,,,,,,,,,yes,,,2022-01-26T15:10:48.000Z,362375,group_5,403043,Memory2/Cat.3,1,2022-01-26T14:22:32.000Z,,,,not measured,,True
9,Memory 2,4,Memory_2,2,29,,,,,,4_2B_memory_4.mp3,3,,,correct_left,,,,,,,,,,,,,,,,,,,,,,,,,,,,,,,,,,,,,,,,,,,,,,,,,,2B,,,,,,,,,,,,yes,,,2022-01-26T15:10:48.000Z,362375,group_5,403043,Memory2/Cat.3,1,2022-01-26T14:22:32.000Z,,,,not measured,,True
9,Memory 2,4,Memory_2,3,50,,,,,First,4_1B_memory_5.mp3,5,,,correct_left,,,,,,,,,,,,,,,,,,,,,,,,,,,,,,,,,,,,,,Correct,,,,732.0,,,,,,,,1B,,,,,,,,,,,,yes,,,2022-01-26T15:10:48.000Z,362375,group_5,403043,Memory2/Cat.3,1,2022-01-26T14:22:32.000Z,,,,not measured,,True
9,Memory 2,4,Memory_2,4,58,,,,,Second,4_1B_memory_3.mp3,6,,,incorrect_left,,,,,,,,,,,,,,,,,,,,,,,,,,,,,,,,,,,,,,Correct,,,,801.0,,,,,,,,1B,,,,,,,,,,,,yes,,,2022-01-26T15:10:48.000Z,362375,group_5,403043,Memory2/Cat.3,1,2022-01-26T14:22:32.000Z,,,,not measured,,True
9,Memory 2,4,Memory_2,5,17,,,,,Second,4_8B_memory_2.mp3,2,,,incorrect_left,,,,,,,,,,,,,,,,,,,,,,,,,,,,,,,,,,,,,,Correct,,,,969.0,,,,,,,,8B,,,,,,,,,,,,yes,,,2022-01-26T15:10:48.000Z,362375,group_5,403043,Memory2/Cat.3,1,2022-01-26T14:22:32.000Z,,,,not measured,,True
9,Memory 2,4,Memory_2,6,45,,,,,First,2_1B_memory_8.mp3,5,,,correct_left,,,,,,,,,,,,,,,,,,,,,,,,,,,,,,,,,,,,,,Correct,,,,831.0,,,,,,,,1B,,,,,,,,,,,,yes,,,2022-01-26T15:10:48.000Z,362375,group_5,403043,Memory2/Cat.3,1,2022-01-26T14:22:32.000Z,,,,not measured,,True
9,Memory 2,4,Memory_2,7,46,,,,,First,4_1B_memory_1.mp3,5,,,correct_left,,,,,,,,,,,,,,,,,,,,,,,,,,,,,,,,,,,,,,Correct,,,,2110.0,,,,,,,,1B,,,,,,,,,,,,yes,,,2022-01-26T15:10:48.000Z,362375,group_5,403043,Memory2/Cat.3,1,2022-01-26T14:22:32.000Z,,,,not measured,,True
9,Memory 2,4,Memory_2,8,28,,,,,First,4_2B_memory_3.mp3,3,,,correct_left,,,,,,,,,,,,,,,,,,,,,,,,,,,,,,,,,,,,,,Correct,,,,959.0,,,,,,,,2B,,,,,,,,,,,,yes,,,2022-01-26T15:10:48.000Z,362375,group_5,403043,Memory2/Cat.3,1,2022-01-26T14:22:32.000Z,,,,not measured,,True
9,Memory 2,4,Memory_2,9,21,,,,,First,2_2B_memory_4.mp3,3,,,correct_left,,,,,,,,,,,,,,,,,,,,,,,,,,,,,,,,,,,,,,Correct,,,,871.0,,,,,,,,2B,,,,,,,,,,,,yes,,,2022-01-26T15:10:48.000Z,362375,group_5,403043,Memory2/Cat.3,1,2022-01-26T14:22:32.000Z,,,,not measured,,True
9,Memory 2,4,Memory_2,10,20,,,,,Second,4_8B_memory_5.mp3,2,,,incorrect_left,,,,,,,,,,,,,,,,,,,,,,,,,,,,,,,,,,,,,,Correct,,,,1099.0,,,,,,,,8B,,,,,,,,,,,,yes,,,2022-01-26T15:10:48.000Z,362375,group_5,403043,Memory2/Cat.3,1,2022-01-26T14:22:32.000Z,,,,not measured,,True
9,Memory 2,4,Memory_2,11,16,,,,,Second,4_8B_memory_1.mp3,2,,,incorrect_left,,,,,,,,,,,,,,,,,,,,,,,,,,,,,,,,,,,,,,Correct,,,,813.0,,,,,,,,8B,,,,,,,,,,,,yes,,,2022-01-26T15:10:48.000Z,362375,group_5,403043,Memory2/Cat.3,1,2022-01-26T14:22:32.000Z,,,,not measured,,True
9,Memory 2,4,Memory_2,12,23,,,,,First,2_2B_memory_6.mp3,3,,,correct_left,,,,,,,,,,,,,,,,,,,,,,,,,,,,,,,,,,,,,,Correct,,,,710.0,,,,,,,,2B,,,,,,,,,,,,yes,,,2022-01-26T15:10:48.000Z,362375,group_5,403043,Memory2/Cat.3,1,2022-01-26T14:22:32.000Z,,,,not measured,,True
9,Memory 2,4,Memory_2,13,32,,,,,Second,2_2B_memory_5.mp3,4,,,incorrect_left,,,,,,,,,,,,,,,,,,,,,,,,,,,,,,,,,,,,,,Correct,,,,841.0,,,,,,,,2B,,,,,,,,,,,,yes,,,2022-01-26T15:10:48.000Z,362375,group_5,403043,Memory2/Cat.3,1,2022-01-26T14:22:32.000Z,,,,not measured,,True
9,Memory 2,4,Memory_2,14,1,,,,,First,2_8B_memory_4.mp3,1,,,correct_left,,,,,,,,,,,,,,,,,,,,,,,,,,,,,,,,,,,,,,Correct,,,,678.0,,,,,,,,8B,,,,,,,,,,,,yes,,,2022-01-26T15:10:48.000Z,362375,group_5,403043,Memory2/Cat.3,1,2022-01-26T14:22:32.000Z,,,,not measured,,True
9,Memory 2,4,Memory_2,15,30,,,,,First,4_2B_memory_5.mp3,3,,,correct_left,,,,,,,,,,,,,,,,,,,,,,,,,,,,,,,,,,,,,,Correct,,,,1168.0,,,,,,,,2B,,,,,,,,,,,,yes,,,2022-01-26T15:10:48.000Z,362375,group_5,403043,Memory2/Cat.3,1,2022-01-26T14:22:32.000Z,,,,not measured,,True
9,Memory 2,4,Memory_2,16,5,,,,,First,2_8B_memory_8.mp3,1,,,correct_left,,,,,,,,,,,,,,,,,,,,,,,,,,,,,,,,,,,,,,Correct,,,,721.0,,,,,,,,8B,,,,,,,,,,,,yes,,,2022-01-26T15:10:48.000Z,362375,group_5,403043,Memory2/Cat.3,1,2022-01-26T14:22:32.000Z,,,,not measured,,True
9,Memory 2,4,Memory_2,17,52,,,,,Second,2_1B_memory_5.mp3,6,,,incorrect_left,,,,,,,,,,,,,,,,,,,,,,,,,,,,,,,,,,,,,,Correct,,,,716.0,,,,,,,,1B,,,,,,,,,,,,yes,,,2022-01-26T15:10:48.000Z,362375,group_5,403043,Memory2/Cat.3,1,2022-01-26T14:22:32.000Z,,,,not measured,,True
9,Memory 2,4,Memory_2,18,51,,,,,Second,2_1B_memory_4.mp3,6,,,incorrect_left,,,,,,,,,,,,,,,,,,,,,,,,,,,,,,,,,,,,,,Correct,,,,876.0,,,,,,,,1B,,,,,,,,,,,,yes,,,2022-01-26T15:10:48.000Z,362375,group_5,403043,Memory2/Cat.3,1,2022-01-26T14:22:32.000Z,,,,not measured,,True
9,Memory 2,4,Memory_2,19,9,,,,,First,4_8B_memory_4.mp3,1,,,correct_left,,,,,,,,,,,,,,,,,,,,,,,,,,,,,,,,,,,,,,Correct,,,,731.0,,,,,,,,8B,,,,,,,,,,,,yes,,,2022-01-26T15:10:48.000Z,362375,group_5,403043,Memory2/Cat.3,1,2022-01-26T14:22:32.000Z,,,,not measured,,True
9,Memory 2,4,Memory_2,20,35,,,,,First,2_2B_memory_8.mp3,4,,,incorrect_left,,,,,,,,,,,,,,,,,,,,,,,,,,,,,,,,,,,,,,Incorrect,,,,915.0,,,,,,,,2B,,,,,,,,,,,,yes,,,2022-01-26T15:10:48.000Z,362375,group_5,403043,Memory2/Cat.3,1,2022-01-26T14:22:32.000Z,,,,not measured,,True
9,Memory 2,4,Memory_2,21,34,,,,,First,2_2B_memory_7.mp3,4,,,incorrect_left,,,,,,,,,,,,,,,,,,,,,,,,,,,,,,,,,,,,,,Incorrect,,,,1220.0,,,,,,,,2B,,,,,,,,,,,,yes,,,2022-01-26T15:10:48.000Z,362375,group_5,403043,Memory2/Cat.3,1,2022-01-26T14:22:32.000Z,,,,not measured,,True
9,Memory 2,4,Memory_2,22,54,,,,,Second,2_1B_memory_7.mp3,6,,,incorrect_left,,,,,,,,,,,,,,,,,,,,,,,,,,,,,,,,,,,,,,Correct,,,,1279.0,,,,,,,,1B,,,,,,,,,,,,yes,,,2022-01-26T15:10:48.000Z,362375,group_5,403043,Memory2/Cat.3,1,2022-01-26T14:22:32.000Z,,,,not measured,,True
9,Memory 2,4,Memory_2,23,36,,,,,First,4_2B_memory_1.mp3,4,,,incorrect_left,,,,,,,,,,,,,,,,,,,,,,,,,,,,,,,,,,,,,,Incorrect,,,,2067.0,,,,,,,,2B,,,,,,,,,,,,yes,,,2022-01-26T15:10:48.000Z,362375,group_5,403043,Memory2/Cat.3,1,2022-01-26T14:22:32.000Z,,,,not measured,,True
9,Memory 2,4,Memory_2,24,3,,,,,First,2_8B_memory_6.mp3,1,,,correct_left,,,,,,,,,,,,,,,,,,,,,,,,,,,,,,,,,,,,,,Correct,,,,943.0,,,,,,,,8B,,,,,,,,,,,,yes,,,2022-01-26T15:10:48.000Z,362375,group_5,403043,Memory2/Cat.3,1,2022-01-26T14:22:32.000Z,,,,not measured,,True
9,Memory 2,4,Memory_2,25,2,,,,,First,2_8B_memory_5.mp3,1,,,correct_left,,,,,,,,,,,,,,,,,,,,,,,,,,,,,,,,,,,,,,Correct,,,,784.0,,,,,,,,8B,,,,,,,,,,,,yes,,,2022-01-26T15:10:48.000Z,362375,group_5,403043,Memory2/Cat.3,1,2022-01-26T14:22:32.000Z,,,,not measured,,True
9,Memory 2,4,Memory_2,26,43,,,,,First,2_1B_memory_6.mp3,5,,,correct_left,,,,,,,,,,,,,,,,,,,,,,,,,,,,,,,,,,,,,,Correct,,,,709.0,,,,,,,,1B,,,,,,,,,,,,yes,,,2022-01-26T15:10:48.000Z,362375,group_5,403043,Memory2/Cat.3,1,2022-01-26T14:22:32.000Z,,,,not measured,,True
9,Memory 2,4,Memory_2,27,57,,,,,First,4_1B_memory_2.mp3,6,,,incorrect_left,,,,,,,,,,,,,,,,,,,,,,,,,,,,,,,,,,,,,,Incorrect,,,,1350.0,,,,,,,,1B,,,,,,,,,,,,yes,,,2022-01-26T15:10:48.000Z,362375,group_5,403043,Memory2/Cat.3,1,2022-01-26T14:22:32.000Z,,,,not measured,,True
9,Memory 2,4,Memory_2,28,59,,,,,First,4_1B_memory_4.mp3,6,,,incorrect_left,,,,,,,,,,,,,,,,,,,,,,,,,,,,,,,,,,,,,,Incorrect,,,,735.0,,,,,,,,1B,,,,,,,,,,,,yes,,,2022-01-26T15:10:48.000Z,362375,group_5,403043,Memory2/Cat.3,1,2022-01-26T14:22:32.000Z,,,,not measured,,True
9,Memory 2,4,Memory_2,29,37,,,,,First,4_2B_memory_2.mp3,4,,,incorrect_left,,,,,,,,,,,,,,,,,,,,,,,,,,,,,,,,,,,,,,Incorrect,,,,953.0,,,,,,,,2B,,,,,,,,,,,,yes,,,2022-01-26T15:10:48.000Z,362375,group_5,403043,Memory2/Cat.3,1,2022-01-26T14:22:32.000Z,,,,not measured,,True
9,Memory 2,4,Memory_2,30,18,,,,,Second,4_8B_memory_3.mp3,2,,,incorrect_left,,,,,,,,,,,,,,,,,,,,,,,,,,,,,,,,,,,,,,Correct,,,,727.0,,,,,,,,8B,,,,,,,,,,,,yes,,,2022-01-26T15:10:48.000Z,362375,group_5,403043,Memory2/Cat.3,1,2022-01-26T14:22:32.000Z,,,,not measured,,True
9,Memory 2,3,Ready?,1,1,,,,,,,1,,,,,,,,,,,,,,,,,,,,,,,,,,,,,,,,,,,,,,,,,,,,,,,,,,,,,,,,,,,,,,,,,yes,,,2022-01-26T15:10:48.000Z,362375,group_5,403043,Memory2/Cat.3,1,2022-01-26T14:22:32.000Z,,,,not measured,,True
9,Memory 2,2,Practice_Memory,1,5,,,,,,,2,,,,,,,,,incorrect_correc,,,,,,,,,,,,,,,,,,,,,,,,,,,,,,,,,,,,,,,,,,,,,,,,,,,,,,,,yes,,,2022-01-26T15:10:48.000Z,362375,group_5,403043,Memory2/Cat.3,1,2022-01-26T14:22:32.000Z,,,,not measured,,True
9,Memory 2,2,Practice_Memory,2,1,,,,,First,,1,,,,,,,,,correct_incorrect,,,,,,,,,,,,,,,,,,,,,,,,,,,,,,,,Correct,,,,2089.0,,,,,,,,,,,,,,,,,,,,yes,,,2022-01-26T15:10:48.000Z,362375,group_5,403043,Memory2/Cat.3,1,2022-01-26T14:22:32.000Z,,,,not measured,,True
9,Memory 2,2,Practice_Memory,3,6,,,,,Second,,2,,,,,,,,,incorrect_correc,,,,,,,,,,,,,,,,,,,,,,,,,,,,,,,,Correct,,,,1163.0,,,,,,,,,,,,,,,,,,,,yes,,,2022-01-26T15:10:48.000Z,362375,group_5,403043,Memory2/Cat.3,1,2022-01-26T14:22:32.000Z,,,,not measured,,True
9,Memory 2,1,Instructions_Memory,1,1,,,,,,,1,,,,,,,,,,,,,,,,,,,,,,,,,,,,,,,,,,,,,,,,,,,,,,,,,,,,,,,,,,,,,,,,,yes,,,2022-01-26T15:10:48.000Z,362375,group_5,403043,Memory2/Cat.3,1,2022-01-26T14:22:32.000Z,,,,not measured,,True
7,HP_Screen,3,imported_HP Evaluation,1,1,,,,,,,1,,,,,,,,,,,,,,0.0,,,,,,,,,,,,,,,,,,,,,,,,,,,,,,,,,,,,,,,,,,,,,,,,,,,yes,,,2022-01-26T15:10:48.000Z,362375,group_5,403043,Memory2/Cat.3,1,2022-01-26T14:22:32.000Z,,,,not measured,,True
7,HP_Screen,2,imported_HP Trials,1,5,,,,,,,1,,,,,,,,,,,,,,0.0,,,"""times=;;;;;;;;;;;;;;;;;---values=;;;;;;;;;;;;;;;;;""",hp1.2.flac,,,,,,,,,,,,,,,,,,,,,,,choice 2,,,,,,,,,,,,,,,,,,,hp1.2.flac,,,,,yes,,,2022-01-26T15:10:48.000Z,362375,group_5,403043,Memory2/Cat.3,1,2022-01-26T14:22:32.000Z,,,,not measured,,True
7,HP_Screen,2,imported_HP Trials,2,3,,,,,,,1,,,,,,,,,,,,,,0.0,,,"""times=;;;;;;;;;;;;;;;;;---values=;;;;;;;;;;;;;;;;;""",hp6.1.flac,,,,,,,,,,,,,,,,,,,,,,,choice 1,,,,,,,,,,,,,,,,,,,hp6.1.flac,,,,,yes,,,2022-01-26T15:10:48.000Z,362375,group_5,403043,Memory2/Cat.3,1,2022-01-26T14:22:32.000Z,,,,not measured,,True
7,HP_Screen,2,imported_HP Trials,3,1,,,,,,,1,,,,,,,,,,,,,,0.0,,,"""times=;;;;;;;;;;;;;;;;;---values=;;;;;;;;;;;;;;;;;""",hp6.2.flac,,,,,,,,,,,,,,,,,,,,,,,choice 2,,,,,,,,,,,,,,,,,,,hp6.2.flac,,,,,yes,,,2022-01-26T15:10:48.000Z,362375,group_5,403043,Memory2/Cat.3,1,2022-01-26T14:22:32.000Z,,,,not measured,,True
7,HP_Screen,2,imported_HP Trials,4,6,,,,,,,1,,,,,,,,,,,,,,0.0,,,"""times=;;;;;;;;;;;;;;;;;---values=;;;;;;;;;;;;;;;;;""",hp4.3.flac,,,,,,,,,,,,,,,,,,,,,,,choice 3,,,,,,,,,,,,,,,,,,,hp4.3.flac,,,,,yes,,,2022-01-26T15:10:48.000Z,362375,group_5,403043,Memory2/Cat.3,1,2022-01-26T14:22:32.000Z,,,,not measured,,True
7,HP_Screen,2,imported_HP Trials,5,4,,,,,,,1,,,,,,,,,,,,,,0.0,,,"""times=;;;;;;;;;;;;;;;;;---values=;;;;;;;;;;;;;;;;;""",hp3.1.flac,,,,,,,,,,,,,,,,,,,,,,,choice 1,,,,,,,,,,,,,,,,,,,hp3.1.flac,,,,,yes,,,2022-01-26T15:10:48.000Z,362375,group_5,403043,Memory2/Cat.3,1,2022-01-26T14:22:32.000Z,,,,not measured,,True
7,HP_Screen,2,imported_HP Trials,6,2,,,,,,,1,,,,,,,,,,,,,,0.0,,,"""times=;;;;;;;;;;;;;;;;;---values=;;;;;;;;;;;;;;;;;""",hp5.1.flac,,,,,,,,,,,,,,,,,,,,,,,choice 1,,,,,,,,,,,,,,,,,,,hp5.1.flac,,,,,yes,,,2022-01-26T15:10:48.000Z,362375,group_5,403043,Memory2/Cat.3,1,2022-01-26T14:22:32.000Z,,,,not measured,,True
7,HP_Screen,1,imported_HP Instructions,1,1,,,,,,,1,,,,,,,,,,,,,,,1.0,,,,,,,,,,,,,,,,,,,,,,,,,,,,,,,,,,,,,,,,,,,,,,,,,,yes,,,2022-01-26T15:10:48.000Z,362375,group_5,403043,Memory2/Cat.3,1,2022-01-26T14:22:32.000Z,,,,not measured,,True
6,AP_Screen,3,imported_AP_eval,1,1,,,,,,,1,,,,,,,,,,,,,,,,,,,,,,,,,,,,,,,0.0,,,,,,,,,,,,,,,,,,,,,,,,,,,,,,,,,,yes,,,2022-01-26T15:10:48.000Z,362375,group_5,403043,Memory2/Cat.3,1,2022-01-26T14:22:32.000Z,,,,not measured,,True
6,AP_Screen,2,imported_AP_headphone test,1,3,,,,,,,3,,,,,,,,,,,,one,,,,,,,,,,,,,,,1.0,,,,0.0,,,,,,,,,,,,,,,,,,,,,,,,,,,,,,,,S_O_I,,yes,,,2022-01-26T15:10:48.000Z,362375,group_5,403043,Memory2/Cat.3,1,2022-01-26T14:22:32.000Z,,,,not measured,,True
6,AP_Screen,2,imported_AP_headphone test,2,1,,,,,,,1,,,,,,,,,,,,three,,,,,,,,,,,,,,,1.0,,,,0.0,,,,,,,,,,,,,,,,,,,,,,,,,,,,,,,,I_O_S,,yes,,,2022-01-26T15:10:48.000Z,362375,group_5,403043,Memory2/Cat.3,1,2022-01-26T14:22:32.000Z,,,,not measured,,True
6,AP_Screen,2,imported_AP_headphone test,3,6,,,,,,,6,,,,,,,,,,,,three,,,,,,,,,,,,,,,1.0,,,,0.0,,,,,,,,,,,,,,,,,,,,,,,,,,,,,,,,O_I_S,,yes,,,2022-01-26T15:10:48.000Z,362375,group_5,403043,Memory2/Cat.3,1,2022-01-26T14:22:32.000Z,,,,not measured,,True
6,AP_Screen,2,imported_AP_headphone test,4,5,,,,,,,5,,,,,,,,,,,,two,,,,,,,,,,,,,,,1.0,,,,0.0,,,,,,,,,,,,,,,,,,,,,,,,,,,,,,,,O_S_I,,yes,,,2022-01-26T15:10:48.000Z,362375,group_5,403043,Memory2/Cat.3,1,2022-01-26T14:22:32.000Z,,,,not measured,,True
6,AP_Screen,2,imported_AP_headphone test,5,4,,,,,,,4,,,,,,,,,,,,one,,,,,,,,,,,,,,,1.0,,,,0.0,,,,,,,,,,,,,,,,,,,,,,,,,,,,,,,,S_I_O,,yes,,,2022-01-26T15:10:48.000Z,362375,group_5,403043,Memory2/Cat.3,1,2022-01-26T14:22:32.000Z,,,,not measured,,True
6,AP_Screen,2,imported_AP_headphone test,6,2,,,,,,,2,,,,,,,,,,,,two,,,,,,,,,,,,,,,1.0,,,,0.0,,,,,,,,,,,,,,,,,,,,,,,,,,,,,,,,I_S_O,,yes,,,2022-01-26T15:10:48.000Z,362375,group_5,403043,Memory2/Cat.3,1,2022-01-26T14:22:32.000Z,,,,not measured,,True
6,AP_Screen,1,imported_AP_instruction,1,1,,,,,,,1,,,,,,,,,,,,,,,,,,,,,,,,,,,,,,,,,,,,,,,,,,,,,,,,,,,,,,,,,,,,,,,,,yes,,,2022-01-26T15:10:48.000Z,362375,group_5,403043,Memory2/Cat.3,1,2022-01-26T14:22:32.000Z,,,,not measured,,True
4,GenInstructMemCat,1,InstructionsMemCat,1,1,,,,,,,1,,,,,,,,,,,,,,,,,,,,,,,,,,,,,,,,,,,,,,,,,,,,,,,,,,,,,,,,,,,,,,,,,yes,,,2022-01-26T15:10:48.000Z,362375,group_5,403043,Memory2/Cat.3,1,2022-01-26T14:22:32.000Z,,,,not measured,,True
2,Consent,1,Consent,1,1,,,,,,,1,,,,,,,,,,,,,,,,,,,,,,,,,,,,,,,,,,,,,,,,,,,,,,,,,,,,,,,,,,,,,,,,,yes,,,2022-01-26T15:10:48.000Z,362375,group_5,403043,Memory2/Cat.3,1,2022-01-26T14:22:32.000Z,,,,not measured,,True
