Block_Nr,Block_Name,Task_Nr,Task_Name,Trial_Nr,Trial_Id,ab_pitch,age_range,answer,best_instru,choice,clip,Condition_Id,conditions,consent,correct_incorrect_m_2,correct_incorrect_m_3,correct_incorrect_mem_1,correct_incorrect_p_1,correct_incorrect_p_2,correct_incorrect_p_3,correct_incorrect_practice_m,correct_incorrect_practice_p,correctCount,decision,earworm,errorCount,exampleCount,familiarity,fileArray,filePick,Frequenc,genre,genre_3,genre_4,hour,imagery,imagery_2,Instr,isCorrect,listen_time,music_theory,name_instru,nrErrors,num_instru,participant_choice,participant_choice_2,participant_choice2,participant_spacePress,participant_spacePress2,played_notplayed,practice_catseg_scramble,relative_pitch,response,response_seg,response_seg2,response_Time2,responseTime,retestCount,scramble_cat_1,scramble_cat_3,scramble_cat_4,scramble_catseg_4,scramble_level,scramble_m_1,scramble_m_2,scramble_m_3,scramble_open_3,scramble_p_1,scramble_p_2,scramble_p_3,set1response,soundName,strategy,time_atClipStart1,toneSequence,always_fullscreen,completed,crowdsourcing_code,crowdsourcing_subj_id,end_time,exp_subject_id,group_name,rec_session_id,session_name,session_nr,start_time,subj_counter_global,subj_counter_per_group,subject_code,time_delay_offset,time_measure_std,unlocked
13,Post-Survey,1,Post-Survey,1,1,No,10-15,,Drum,,,1,,,,,,,,,,,,,4.0,,,3.0,,,Occasionally,Kpop,Rock,Jazz,1 hour,,5.0,2 years,,2 hours,0 years,"Guitar, Drum",,2.0,,,,,,option_0,,Yes,,,,,,,,,,,,,,,,,,,,,Listen carefully to the first part,,,,yes,,,2022-01-27T18:20:13.000Z,363111,group_7,403945,Prediction1/Open4,1,2022-01-27T17:39:54.000Z,,,,not measured,,True
11,OpenEndedSeg_4,4,OpenEndedSeg_4,1,8,,,,,,,2,,,,,,,,,,,,,,,,,,,,,,,,,,,,,,,,,,,,,,,,,,,,,,,,,8B,,,,,,,,,,,,,,,,yes,,,2022-01-27T18:20:13.000Z,363111,group_7,403945,Prediction1/Open4,1,2022-01-27T17:39:54.000Z,,,,not measured,,True
11,OpenEndedSeg_4,4,OpenEndedSeg_4,2,15,,,,,,,4,,,,,,,,,,,,,,,,,,,,,,,,,,,,,,,,,,,,,,,,,,,,,,,,,1B,,,,,,,,,,,,,,,,yes,,,2022-01-27T18:20:13.000Z,363111,group_7,403945,Prediction1/Open4,1,2022-01-27T17:39:54.000Z,,,,not measured,,True
11,OpenEndedSeg_4,4,OpenEndedSeg_4,3,16,,,,,,,4,,,,,,,,,,,,,,,,,,,,,,,,,,,,,,,,,,,,,,,,,,,,,,,,,1B,,,,,,,,,,,,,,,,yes,,,2022-01-27T18:20:13.000Z,363111,group_7,403945,Prediction1/Open4,1,2022-01-27T17:39:54.000Z,,,,not measured,,True
11,OpenEndedSeg_4,4,OpenEndedSeg_4,4,2,,,,,,,1,,,,,,,,,,,,,,,,,,,,,,,,,,,,,,,,,,,,,,,,,,,,,,,,,intact,,,,,,,,,,,,,,,,yes,,,2022-01-27T18:20:13.000Z,363111,group_7,403945,Prediction1/Open4,1,2022-01-27T17:39:54.000Z,,,,not measured,,True
11,OpenEndedSeg_4,4,OpenEndedSeg_4,5,7,,,,,,,2,,,,,,,,,,,,,,,,,,,,,,,,,,,,,,,,,,,,,,,,,,,,,,,,,8B,,,,,,,,,,,,,,,,yes,,,2022-01-27T18:20:13.000Z,363111,group_7,403945,Prediction1/Open4,1,2022-01-27T17:39:54.000Z,,,,not measured,,True
11,OpenEndedSeg_4,4,OpenEndedSeg_4,6,1,,,,,,,1,,,,,,,,,,,,,,,,,,,,,,,,,,,,,,,,,,,,,,,,,,,,,,,,,intact,,,,,,,,,,,,,,,,yes,,,2022-01-27T18:20:13.000Z,363111,group_7,403945,Prediction1/Open4,1,2022-01-27T17:39:54.000Z,,,,not measured,,True
11,OpenEndedSeg_4,4,OpenEndedSeg_4,7,11,,,,,,,3,,,,,,,,,,,,,,,,,,,,,,,,,,,,,,,,,,,,,,,,,,,,,,,,,2B,,,,,,,,,,,,,,,,yes,,,2022-01-27T18:20:13.000Z,363111,group_7,403945,Prediction1/Open4,1,2022-01-27T17:39:54.000Z,,,,not measured,,True
11,OpenEndedSeg_4,4,OpenEndedSeg_4,8,12,,,,,,,3,,,,,,,,,,,,,,,,,,,,,,,,,,,,,,,,,,,,,"""times=1643307452779---values=3420""",,,,,,,,,,,,2B,,,,,,,,,,,,,,,,yes,,,2022-01-27T18:20:13.000Z,363111,group_7,403945,Prediction1/Open4,1,2022-01-27T17:39:54.000Z,,,,not measured,,True
11,OpenEndedSeg_4,3,Ready?,1,1,,,,,,,1,,,,,,,,,,,,,,,,,,,,,,,,,,,,,,,,,,,,,,,,,,,,,,,,,,,,,,,,,,,,,,,,,yes,,,2022-01-27T18:20:13.000Z,363111,group_7,403945,Prediction1/Open4,1,2022-01-27T17:39:54.000Z,,,,not measured,,True
11,OpenEndedSeg_4,2,Practice_OpenEnded,1,1,,,,,,,1,,,,,,,,,,,,,,,,,,,,,,,,,,,,,,,,,,,,,,,,,,,,,,,,,,,,,,,,,,,,,,,,,yes,,,2022-01-27T18:20:13.000Z,363111,group_7,403945,Prediction1/Open4,1,2022-01-27T17:39:54.000Z,,,,not measured,,True
11,OpenEndedSeg_4,1,Instructions_Open,1,1,,,,,,,1,,,,,,,,,,,,,,,,,,,,,,,,,,,,,,,,,,,,,,,,,,,,,,,,,,,,,,,,,,,,,,,,,yes,,,2022-01-27T18:20:13.000Z,363111,group_7,403945,Prediction1/Open4,1,2022-01-27T17:39:54.000Z,,,,not measured,,True
9,Prediction 1,4,Prediction_1,1,46,,,,,Second,3_1B_prediction_1.mp3,5,,,,,,correct_first,,,,,,,,,,,,,,,,,,,,,,,,,,,,,,,,,,,Incorrect,,,,784.0,,,,,,,,,,,1B,,,,,,,,,yes,,,2022-01-27T18:20:13.000Z,363111,group_7,403945,Prediction1/Open4,1,2022-01-27T17:39:54.000Z,,,,not measured,,True
9,Prediction 1,4,Prediction_1,2,50,,,,,Second,3_1B_prediction_5.mp3,5,,,,,,correct_first,,,,,,,,,,,,,,,,,,,,,,,,,,,,,,,,,,,Incorrect,,,,1392.0,,,,,,,,,,,1B,,,,,,,,,yes,,,2022-01-27T18:20:13.000Z,363111,group_7,403945,Prediction1/Open4,1,2022-01-27T17:39:54.000Z,,,,not measured,,True
9,Prediction 1,4,Prediction_1,3,29,,,,,First,3_2B_prediction_4.mp3,3,,,,,,correct_first,,,,,,,,,,,,,,,,,,,,,,,,,,,,,,,,,,,Correct,,,,1547.0,,,,,,,,,,,2B,,,,,,,,,yes,,,2022-01-27T18:20:13.000Z,363111,group_7,403945,Prediction1/Open4,1,2022-01-27T17:39:54.000Z,,,,not measured,,True
9,Prediction 1,4,Prediction_1,4,59,,,,,First,3_1B_prediction_4.mp3,6,,,,,,incorrect_first,,,,,,,,,,,,,,,,,,,,,,,,,,,,,,,,,,,Incorrect,,,,468.0,,,,,,,,,,,1B,,,,,,,,,yes,,,2022-01-27T18:20:13.000Z,363111,group_7,403945,Prediction1/Open4,1,2022-01-27T17:39:54.000Z,,,,not measured,,True
9,Prediction 1,4,Prediction_1,5,38,,,,,Second,3_2B_prediction_3.mp3,4,,,,,,incorrect_first,,,,,,,,,,,,,,,,,,,,,,,,,,,,,,,,,,,Correct,,,,592.0,,,,,,,,,,,2B,,,,,,,,,yes,,,2022-01-27T18:20:13.000Z,363111,group_7,403945,Prediction1/Open4,1,2022-01-27T17:39:54.000Z,,,,not measured,,True
9,Prediction 1,4,Prediction_1,6,6,,,,,Second,3_8B_prediction_1.mp3,1,,,,,,correct_first,,,,,,,,,,,,,,,,,,,,,,,,,,,,,,,,,,,Incorrect,,,,859.0,,,,,,,,,,,8B,,,,,,,,,yes,,,2022-01-27T18:20:13.000Z,363111,group_7,403945,Prediction1/Open4,1,2022-01-27T17:39:54.000Z,,,,not measured,,True
9,Prediction 1,4,Prediction_1,7,9,,,,,First,3_8B_prediction_4.mp3,1,,,,,,correct_first,,,,,,,,,,,,,,,,,,,,,,,,,,,,,,,,,,,Correct,,,,799.0,,,,,,,,,,,8B,,,,,,,,,yes,,,2022-01-27T18:20:13.000Z,363111,group_7,403945,Prediction1/Open4,1,2022-01-27T17:39:54.000Z,,,,not measured,,True
9,Prediction 1,4,Prediction_1,8,11,,,,,Second,2_8B_prediction_1.mp3,2,,,,,,incorrect_first,,,,,,,,,,,,,,,,,,,,,,,,,,,,,,,,,,,Correct,,,,517.0,,,,,,,,,,,8B,,,,,,,,,yes,,,2022-01-27T18:20:13.000Z,363111,group_7,403945,Prediction1/Open4,1,2022-01-27T17:39:54.000Z,,,,not measured,,True
9,Prediction 1,4,Prediction_1,9,24,,,,,First,2_2B_prediction_4.mp3,3,,,,,,correct_first,,,,,,,,,,,,,,,,,,,,,,,,,,,,,,,,,,,Correct,,,,1135.0,,,,,,,,,,,2B,,,,,,,,,yes,,,2022-01-27T18:20:13.000Z,363111,group_7,403945,Prediction1/Open4,1,2022-01-27T17:39:54.000Z,,,,not measured,,True
9,Prediction 1,4,Prediction_1,10,48,,,,,Second,3_1B_prediction_3.mp3,5,,,,,,correct_first,,,,,,,,,,,,,,,,,,,,,,,,,,,,,,,,,,,Incorrect,,,,1256.0,,,,,,,,,,,1B,,,,,,,,,yes,,,2022-01-27T18:20:13.000Z,363111,group_7,403945,Prediction1/Open4,1,2022-01-27T17:39:54.000Z,,,,not measured,,True
9,Prediction 1,4,Prediction_1,11,51,,,,,Second,2_1B_prediction_1.mp3,6,,,,,,incorrect_first,,,,,,,,,,,,,,,,,,,,,,,,,,,,,,,,,,,Correct,,,,541.0,,,,,,,,,,,1B,,,,,,,,,yes,,,2022-01-27T18:20:13.000Z,363111,group_7,403945,Prediction1/Open4,1,2022-01-27T17:39:54.000Z,,,,not measured,,True
9,Prediction 1,4,Prediction_1,12,32,,,,,First,2_2B_prediction_2.mp3,4,,,,,,incorrect_first,,,,,,,,,,,,,,,,,,,,,,,,,,,,,,,,,,,Incorrect,,,,1714.0,,,,,,,,,,,2B,,,,,,,,,yes,,,2022-01-27T18:20:13.000Z,363111,group_7,403945,Prediction1/Open4,1,2022-01-27T17:39:54.000Z,,,,not measured,,True
9,Prediction 1,4,Prediction_1,13,25,,,,,Second,2_2B_prediction_5.mp3,3,,,,,,correct_first,,,,,,,,,,,,,,,,,,,,,,,,,,,,,,,,,,,Incorrect,,,,1163.0,,,,,,,,,,,2B,,,,,,,,,yes,,,2022-01-27T18:20:13.000Z,363111,group_7,403945,Prediction1/Open4,1,2022-01-27T17:39:54.000Z,,,,not measured,,True
9,Prediction 1,4,Prediction_1,14,2,,,,,Second,2_8B_prediction_2.mp3,1,,,,,,correct_first,,,,,,,,,,,,,,,,,,,,,,,,,,,,,,,,,,,Incorrect,,,,1180.0,,,,,,,,,,,8B,,,,,,,,,yes,,,2022-01-27T18:20:13.000Z,363111,group_7,403945,Prediction1/Open4,1,2022-01-27T17:39:54.000Z,,,,not measured,,True
9,Prediction 1,4,Prediction_1,15,17,,,,,First,3_8B_prediction_10.mp3,2,,,,,,incorrect_first,,,,,,,,,,,,,,,,,,,,,,,,,,,,,,,,,,,Incorrect,,,,648.0,,,,,,,,,,,8B,,,,,,,,,yes,,,2022-01-27T18:20:13.000Z,363111,group_7,403945,Prediction1/Open4,1,2022-01-27T17:39:54.000Z,,,,not measured,,True
9,Prediction 1,4,Prediction_1,16,14,,,,,Second,2_8B_prediction_4.mp3,2,,,,,,incorrect_first,,,,,,,,,,,,,,,,,,,,,,,,,,,,,,,,,,,Correct,,,,951.0,,,,,,,,,,,8B,,,,,,,,,yes,,,2022-01-27T18:20:13.000Z,363111,group_7,403945,Prediction1/Open4,1,2022-01-27T17:39:54.000Z,,,,not measured,,True
9,Prediction 1,4,Prediction_1,17,18,,,,,First,3_8B_prediction_3.mp3,2,,,,,,incorrect_first,,,,,,,,,,,,,,,,,,,,,,,,,,,,,,,,,,,Incorrect,,,,489.0,,,,,,,,,,,8B,,,,,,,,,yes,,,2022-01-27T18:20:13.000Z,363111,group_7,403945,Prediction1/Open4,1,2022-01-27T17:39:54.000Z,,,,not measured,,True
9,Prediction 1,4,Prediction_1,18,20,,,,,First,3_8B_prediction_5.mp3,2,,,,,,incorrect_first,,,,,,,,,,,,,,,,,,,,,,,,,,,,,,,,,,,Incorrect,,,,1239.0,,,,,,,,,,,8B,,,,,,,,,yes,,,2022-01-27T18:20:13.000Z,363111,group_7,403945,Prediction1/Open4,1,2022-01-27T17:39:54.000Z,,,,not measured,,True
9,Prediction 1,4,Prediction_1,19,23,,,,,Second,2_2B_prediction_3.mp3,3,,,,,,correct_first,,,,,,,,,,,,,,,,,,,,,,,,,,,,,,,,,,,Incorrect,,,,718.0,,,,,,,,,,,2B,,,,,,,,,yes,,,2022-01-27T18:20:13.000Z,363111,group_7,403945,Prediction1/Open4,1,2022-01-27T17:39:54.000Z,,,,not measured,,True
9,Prediction 1,4,Prediction_1,20,44,,,,,First,2_1B_prediction_4.mp3,5,,,,,,correct_first,,,,,,,,,,,,,,,,,,,,,,,,,,,,,,,,,,,Correct,,,,387.0,,,,,,,,,,,1B,,,,,,,,,yes,,,2022-01-27T18:20:13.000Z,363111,group_7,403945,Prediction1/Open4,1,2022-01-27T17:39:54.000Z,,,,not measured,,True
9,Prediction 1,4,Prediction_1,21,13,,,,,Second,2_8B_prediction_3.mp3,2,,,,,,incorrect_first,,,,,,,,,,,,,,,,,,,,,,,,,,,,,,,,,,,Correct,,,,718.0,,,,,,,,,,,8B,,,,,,,,,yes,,,2022-01-27T18:20:13.000Z,363111,group_7,403945,Prediction1/Open4,1,2022-01-27T17:39:54.000Z,,,,not measured,,True
9,Prediction 1,4,Prediction_1,22,31,,,,,First,2_2B_prediction_1.mp3,4,,,,,,incorrect_first,,,,,,,,,,,,,,,,,,,,,,,,,,,,,,,,,,,Incorrect,,,,1669.0,,,,,,,,,,,2B,,,,,,,,,yes,,,2022-01-27T18:20:13.000Z,363111,group_7,403945,Prediction1/Open4,1,2022-01-27T17:39:54.000Z,,,,not measured,,True
9,Prediction 1,4,Prediction_1,23,15,,,,,Second,2_8B_prediction_5.mp3,2,,,,,,incorrect_first,,,,,,,,,,,,,,,,,,,,,,,,,,,,,,,,,,,Correct,,,,466.0,,,,,,,,,,,8B,,,,,,,,,yes,,,2022-01-27T18:20:13.000Z,363111,group_7,403945,Prediction1/Open4,1,2022-01-27T17:39:54.000Z,,,,not measured,,True
9,Prediction 1,4,Prediction_1,24,37,,,,,Second,3_2B_prediction_2.mp3,4,,,,,,incorrect_first,,,,,,,,,,,,,,,,,,,,,,,,,,,,,,,,,,,Correct,,,,835.0,,,,,,,,,,,2B,,,,,,,,,yes,,,2022-01-27T18:20:13.000Z,363111,group_7,403945,Prediction1/Open4,1,2022-01-27T17:39:54.000Z,,,,not measured,,True
9,Prediction 1,4,Prediction_1,25,43,,,,,Second,2_1B_prediction_3.mp3,5,,,,,,correct_first,,,,,,,,,,,,,,,,,,,,,,,,,,,,,,,,,,,Incorrect,,,,1413.0,,,,,,,,,,,1B,,,,,,,,,yes,,,2022-01-27T18:20:13.000Z,363111,group_7,403945,Prediction1/Open4,1,2022-01-27T17:39:54.000Z,,,,not measured,,True
9,Prediction 1,4,Prediction_1,26,36,,,,,First,3_2B_prediction_1.mp3,4,,,,,,incorrect_first,,,,,,,,,,,,,,,,,,,,,,,,,,,,,,,,,,,Incorrect,,,,2050.0,,,,,,,,,,,2B,,,,,,,,,yes,,,2022-01-27T18:20:13.000Z,363111,group_7,403945,Prediction1/Open4,1,2022-01-27T17:39:54.000Z,,,,not measured,,True
9,Prediction 1,4,Prediction_1,27,47,,,,,Second,3_1B_prediction_2.mp3,5,,,,,,correct_first,,,,,,,,,,,,,,,,,,,,,,,,,,,,,,,,,,,Incorrect,,,,3457.0,,,,,,,,,,,1B,,,,,,,,,yes,,,2022-01-27T18:20:13.000Z,363111,group_7,403945,Prediction1/Open4,1,2022-01-27T17:39:54.000Z,,,,not measured,,True
9,Prediction 1,4,Prediction_1,28,52,,,,,Second,2_1B_prediction_2.mp3,6,,,,,,incorrect_first,,,,,,,,,,,,,,,,,,,,,,,,,,,,,,,,,,,Correct,,,,3464.0,,,,,,,,,,,1B,,,,,,,,,yes,,,2022-01-27T18:20:13.000Z,363111,group_7,403945,Prediction1/Open4,1,2022-01-27T17:39:54.000Z,,,,not measured,,True
9,Prediction 1,4,Prediction_1,29,30,,,,,First,3_2B_prediction_5.mp3,3,,,,,,correct_first,,,,,,,,,,,,,,,,,,,,,,,,,,,,,,,,,,,Correct,,,,2992.0,,,,,,,,,,,2B,,,,,,,,,yes,,,2022-01-27T18:20:13.000Z,363111,group_7,403945,Prediction1/Open4,1,2022-01-27T17:39:54.000Z,,,,not measured,,True
9,Prediction 1,4,Prediction_1,30,45,,,,,Second,2_1B_prediction_5.mp3,5,,,,,,correct_first,,,,,,,,,,,,,,,,,,,,,,,,,,,,,,,,,,,Incorrect,,,,2709.0,,,,,,,,,,,1B,,,,,,,,,yes,,,2022-01-27T18:20:13.000Z,363111,group_7,403945,Prediction1/Open4,1,2022-01-27T17:39:54.000Z,,,,not measured,,True
9,Prediction 1,3,Ready?,1,1,,,,,,,1,,,,,,,,,,,,,,,,,,,,,,,,,,,,,,,,,,,,,,,,,,,,,,,,,,,,,,,,,,,,,,,,,yes,,,2022-01-27T18:20:13.000Z,363111,group_7,403945,Prediction1/Open4,1,2022-01-27T17:39:54.000Z,,,,not measured,,True
9,Prediction 1,2,Practice_Prediction,1,5,,,,,Second,,2,,,,,,,,,,incorrect_correct,,,,,,,,,,,,,,,,,,,,,,,,,,,,,,,Correct,,,,2021.0,,,,,,,,,,,,,,,,,,,,yes,,,2022-01-27T18:20:13.000Z,363111,group_7,403945,Prediction1/Open4,1,2022-01-27T17:39:54.000Z,,,,not measured,,True
9,Prediction 1,2,Practice_Prediction,2,1,,,,,First,,1,,,,,,,,,,correct_incorrect,,,,,,,,,,,,,,,,,,,,,,,,,,,,,,,Correct,,,,1298.0,,,,,,,,,,,,,,,,,,,,yes,,,2022-01-27T18:20:13.000Z,363111,group_7,403945,Prediction1/Open4,1,2022-01-27T17:39:54.000Z,,,,not measured,,True
9,Prediction 1,2,Practice_Prediction,3,6,,,,,Second,,2,,,,,,,,,,incorrect_correct,,,,,,,,,,,,,,,,,,,,,,,,,,,,,,,Correct,,,,750.0,,,,,,,,,,,,,,,,,,,,yes,,,2022-01-27T18:20:13.000Z,363111,group_7,403945,Prediction1/Open4,1,2022-01-27T17:39:54.000Z,,,,not measured,,True
9,Prediction 1,1,Instructions_Prediction,1,1,,,,,,,1,,,,,,,,,,,,,,,,,,,,,,,,,,,,,,,,,,,,,,,,,,,,,,,,,,,,,,,,,,,,,,,,,yes,,,2022-01-27T18:20:13.000Z,363111,group_7,403945,Prediction1/Open4,1,2022-01-27T17:39:54.000Z,,,,not measured,,True
7,AP_Screen,3,imported_AP_eval,1,1,,,,,,,1,,,,,,,,,,,,,,,,,,,,,,,,,,,,,,,0.0,,,,,,,,,,,,,,,,,,,,,,,,,,,,,,,,,,yes,,,2022-01-27T18:20:13.000Z,363111,group_7,403945,Prediction1/Open4,1,2022-01-27T17:39:54.000Z,,,,not measured,,True
7,AP_Screen,2,imported_AP_headphone test,1,3,,,,,,,3,,,,,,,,,,,,one,,,,,,,,,,,,,,,1.0,,,,0.0,,,,,,,,,,,,,,,,,,,,,,,,,,,,,,,,S_O_I,,yes,,,2022-01-27T18:20:13.000Z,363111,group_7,403945,Prediction1/Open4,1,2022-01-27T17:39:54.000Z,,,,not measured,,True
7,AP_Screen,2,imported_AP_headphone test,2,5,,,,,,,5,,,,,,,,,,,,two,,,,,,,,,,,,,,,1.0,,,,0.0,,,,,,,,,,,,,,,,,,,,,,,,,,,,,,,,O_S_I,,yes,,,2022-01-27T18:20:13.000Z,363111,group_7,403945,Prediction1/Open4,1,2022-01-27T17:39:54.000Z,,,,not measured,,True
7,AP_Screen,2,imported_AP_headphone test,3,4,,,,,,,4,,,,,,,,,,,,one,,,,,,,,,,,,,,,1.0,,,,0.0,,,,,,,,,,,,,,,,,,,,,,,,,,,,,,,,S_I_O,,yes,,,2022-01-27T18:20:13.000Z,363111,group_7,403945,Prediction1/Open4,1,2022-01-27T17:39:54.000Z,,,,not measured,,True
7,AP_Screen,2,imported_AP_headphone test,4,1,,,,,,,1,,,,,,,,,,,,three,,,,,,,,,,,,,,,1.0,,,,0.0,,,,,,,,,,,,,,,,,,,,,,,,,,,,,,,,I_O_S,,yes,,,2022-01-27T18:20:13.000Z,363111,group_7,403945,Prediction1/Open4,1,2022-01-27T17:39:54.000Z,,,,not measured,,True
7,AP_Screen,2,imported_AP_headphone test,5,6,,,,,,,6,,,,,,,,,,,,three,,,,,,,,,,,,,,,1.0,,,,0.0,,,,,,,,,,,,,,,,,,,,,,,,,,,,,,,,O_I_S,,yes,,,2022-01-27T18:20:13.000Z,363111,group_7,403945,Prediction1/Open4,1,2022-01-27T17:39:54.000Z,,,,not measured,,True
7,AP_Screen,2,imported_AP_headphone test,6,2,,,,,,,2,,,,,,,,,,,,two,,,,,,,,,,,,,,,1.0,,,,0.0,,,,,,,,,,,,,,,,,,,,,,,,,,,,,,,,I_S_O,,yes,,,2022-01-27T18:20:13.000Z,363111,group_7,403945,Prediction1/Open4,1,2022-01-27T17:39:54.000Z,,,,not measured,,True
7,AP_Screen,1,imported_AP_instruction,1,1,,,,,,,1,,,,,,,,,,,,,,,,,,,,,,,,,,,,,,,,,,,,,,,,,,,,,,,,,,,,,,,,,,,,,,,,,yes,,,2022-01-27T18:20:13.000Z,363111,group_7,403945,Prediction1/Open4,1,2022-01-27T17:39:54.000Z,,,,not measured,,True
6,HP_Screen,3,imported_HP Evaluation,1,1,,,,,,,1,,,,,,,,,,,,,,0.0,,,,,,,,,,,,,,,,,,,,,,,,,,,,,,,,,,,,,,,,,,,,,,,,,,,yes,,,2022-01-27T18:20:13.000Z,363111,group_7,403945,Prediction1/Open4,1,2022-01-27T17:39:54.000Z,,,,not measured,,True
6,HP_Screen,2,imported_HP Trials,1,4,,,,,,,1,,,,,,,,,,,,,,0.0,,,"""times=;;;;;;;;;;;;;;;;;---values=;;;;;;;;;;;;;;;;;""",hp3.1.flac,,,,,,,,,,,,,,,,,,,,,,,choice 1,,,,,,,,,,,,,,,,,,,hp3.1.flac,,,,,yes,,,2022-01-27T18:20:13.000Z,363111,group_7,403945,Prediction1/Open4,1,2022-01-27T17:39:54.000Z,,,,not measured,,True
6,HP_Screen,2,imported_HP Trials,2,1,,,,,,,1,,,,,,,,,,,,,,0.0,,,"""times=;;;;;;;;;;;;;;;;;---values=;;;;;;;;;;;;;;;;;""",hp2.1.flac,,,,,,,,,,,,,,,,,,,,,,,choice 1,,,,,,,,,,,,,,,,,,,hp2.1.flac,,,,,yes,,,2022-01-27T18:20:13.000Z,363111,group_7,403945,Prediction1/Open4,1,2022-01-27T17:39:54.000Z,,,,not measured,,True
6,HP_Screen,2,imported_HP Trials,3,5,,,,,,,1,,,,,,,,,,,,,,0.0,,,"""times=;;;;;;;;;;;;;;;;;---values=;;;;;;;;;;;;;;;;;""",hp4.3.flac,,,,,,,,,,,,,,,,,,,,,,,choice 3,,,,,,,,,,,,,,,,,,,hp4.3.flac,,,,,yes,,,2022-01-27T18:20:13.000Z,363111,group_7,403945,Prediction1/Open4,1,2022-01-27T17:39:54.000Z,,,,not measured,,True
6,HP_Screen,2,imported_HP Trials,4,6,,,,,,,1,,,,,,,,,,,,,,0.0,,,"""times=;;;;;;;;;;;;;;;;;---values=;;;;;;;;;;;;;;;;;""",hp5.2.flac,,,,,,,,,,,,,,,,,,,,,,,choice 2,,,,,,,,,,,,,,,,,,,hp5.2.flac,,,,,yes,,,2022-01-27T18:20:13.000Z,363111,group_7,403945,Prediction1/Open4,1,2022-01-27T17:39:54.000Z,,,,not measured,,True
6,HP_Screen,2,imported_HP Trials,5,2,,,,,,,1,,,,,,,,,,,,,,0.0,,,"""times=;;;;;;;;;;;;;;;;;---values=;;;;;;;;;;;;;;;;;""",hp5.3.flac,,,,,,,,,,,,,,,,,,,,,,,choice 3,,,,,,,,,,,,,,,,,,,hp5.3.flac,,,,,yes,,,2022-01-27T18:20:13.000Z,363111,group_7,403945,Prediction1/Open4,1,2022-01-27T17:39:54.000Z,,,,not measured,,True
6,HP_Screen,2,imported_HP Trials,6,3,,,,,,,1,,,,,,,,,,,,,,0.0,,,"""times=;;;;;;;;;;;;;;;;;---values=;;;;;;;;;;;;;;;;;""",hp4.2.flac,,,,,,,,,,,,,,,,,,,,,,,choice 2,,,,,,,,,,,,,,,,,,,hp4.2.flac,,,,,yes,,,2022-01-27T18:20:13.000Z,363111,group_7,403945,Prediction1/Open4,1,2022-01-27T17:39:54.000Z,,,,not measured,,True
6,HP_Screen,1,imported_HP Instructions,1,1,,,,,,,1,,,,,,,,,,,,,,,1.0,,,,,,,,,,,,,,,,,,,,,,,,,,,,,,,,,,,,,,,,,,,,,,,,,,yes,,,2022-01-27T18:20:13.000Z,363111,group_7,403945,Prediction1/Open4,1,2022-01-27T17:39:54.000Z,,,,not measured,,True
4,GenInstructPredOpen,1,InstructionsPredOpen,1,1,,,,,,,1,,,,,,,,,,,,,,,,,,,,,,,,,,,,,,,,,,,,,,,,,,,,,,,,,,,,,,,,,,,,,,,,,yes,,,2022-01-27T18:20:13.000Z,363111,group_7,403945,Prediction1/Open4,1,2022-01-27T17:39:54.000Z,,,,not measured,,True
2,Consent,1,Consent,1,1,,,,,,,1,,,,,,,,,,,,,,,,,,,,,,,,,,,,,,,,,,,,,,,,,,,,,,,,,,,,,,,,,,,,,,,,,yes,,,2022-01-27T18:20:13.000Z,363111,group_7,403945,Prediction1/Open4,1,2022-01-27T17:39:54.000Z,,,,not measured,,True
