Block_Nr,Block_Name,Task_Nr,Task_Name,Trial_Nr,Trial_Id,ab_pitch,age_range,answer,best_instru,choice,clip,Condition_Id,conditions,consent,correct_incorrect_m_2,correct_incorrect_m_3,correct_incorrect_mem_1,correct_incorrect_p_1,correct_incorrect_p_2,correct_incorrect_p_3,correct_incorrect_practice_m,correct_incorrect_practice_p,correctCount,decision,earworm,errorCount,exampleCount,familiarity,fileArray,filePick,Frequenc,genre,genre_3,genre_4,hour,imagery,imagery_2,Instr,isCorrect,listen_time,music_theory,name_instru,nrErrors,num_instru,participant_choice,participant_choice_2,participant_choice2,participant_spacePress,participant_spacePress2,played_notplayed,practice_catseg_scramble,relative_pitch,response,response_seg,response_seg2,response_Time2,responseTime,retestCount,scramble_cat_1,scramble_cat_3,scramble_cat_4,scramble_catseg_4,scramble_level,scramble_m_1,scramble_m_2,scramble_m_3,scramble_open_3,scramble_p_1,scramble_p_2,scramble_p_3,set1response,soundName,strategy,time_atClipStart1,toneSequence,always_fullscreen,completed,crowdsourcing_code,crowdsourcing_subj_id,end_time,exp_subject_id,group_name,rec_session_id,session_name,session_nr,start_time,subj_counter_global,subj_counter_per_group,subject_code,time_delay_offset,time_measure_std,unlocked
13,Post-Survey,1,Post-Survey,1,1,,,,,,,1,,,,,,,,,,,,,,,,1.0,,,,,,,,,,,,,,,,,,,,,,option_1,,,,,,,,,,,,,,,,,,,,,,,I had to focus and create a tune in my head with lyrics,,,,yes,,,2022-01-28T16:31:35.000Z,363707,group_8,404981,Prediction2/Open3,1,2022-01-28T14:56:58.000Z,,,,not measured,,True
11,OpenEndedSeg_3,4,OpenEndedSeg_3,1,12,,,,,,,3,,,,,,,,,,,,,,,,,,,,,,,,,,,,,,,,,,,,"""times=1643386373396;1643386391247;1643386405301---values=;17806;31860""","""times=1643386373396;1643386447034;1643386452412;1643386465068;1643386478062;1643386499466---values=;5989;11368;24024;37018;58422""",,,,,,,,,,,,,,,,,,2B,,,,,,,,,,yes,,,2022-01-28T16:31:35.000Z,363707,group_8,404981,Prediction2/Open3,1,2022-01-28T14:56:58.000Z,,,,not measured,,True
11,OpenEndedSeg_3,4,OpenEndedSeg_3,2,11,,,,,,,3,,,,,,,,,,,,,,,,,,,,,,,,,,,,,,,,,,,,"""times=1643386508721;1643386519869;1643386535582;1643386558543---values=;11147;26860;49821""","""times=1643386508721;1643386588325;1643386602842;1643386627927---values=;11701;26218;51303""",,,,,,,,,,,,,,,,,,2B,,,,,,,,,,yes,,,2022-01-28T16:31:35.000Z,363707,group_8,404981,Prediction2/Open3,1,2022-01-28T14:56:58.000Z,,,,not measured,,True
11,OpenEndedSeg_3,4,OpenEndedSeg_3,3,2,,,,,,,1,,,,,,,,,,,,,,,,,,,,,,,,,,,,,,,,,,,,"""times=1643386644424;1643386656828;1643386670405;1643386683023;1643386695941---values=;12355;25932;38550;51468""","""times=1643386644424;1643386721096;1643386738831;1643386742590;1643386768098---values=;10545;28280;32039;57547""",,,,,,,,,,,,,,,,,,intact,,,,,,,,,,yes,,,2022-01-28T16:31:35.000Z,363707,group_8,404981,Prediction2/Open3,1,2022-01-28T14:56:58.000Z,,,,not measured,,True
11,OpenEndedSeg_3,4,OpenEndedSeg_3,4,14,,,,,,,4,,,,,,,,,,,,,,,,,,,,,,,,,,,,,,,,,,,,"""times=1643386776596;1643386811331;1643386822182;1643386832792---values=;34733;45584;56194""","""times=1643386776596;1643386880799;1643386889383;1643386891108;1643386901236---values=;37019;45603;47328;57456""",,,,,,,,,,,,,,,,,,1B,,,,,,,,,,yes,,,2022-01-28T16:31:35.000Z,363707,group_8,404981,Prediction2/Open3,1,2022-01-28T14:56:58.000Z,,,,not measured,,True
11,OpenEndedSeg_3,4,OpenEndedSeg_3,5,5,,,,,,,2,,,,,,,,,,,,,,,,,,,,,,,,,,,,,,,,,,,,"""times=1643386910861;1643386934373;1643386942842;1643386944785;1643386969880---values=;23511;31980;33923;59018""","""times=1643386910861;1643387011675---values=;33132""",,,,,,,,,,,,,,,,,,8B,,,,,,,,,,yes,,,2022-01-28T16:31:35.000Z,363707,group_8,404981,Prediction2/Open3,1,2022-01-28T14:56:58.000Z,,,,not measured,,True
11,OpenEndedSeg_3,4,OpenEndedSeg_3,6,7,,,,,,,2,,,,,,,,,,,,,,,,,,,,,,,,,,,,,,,,,,,,"""times=1643387045982;1643387088823;1643387106926---values=;42839;60942""","""times=1643387045982;1643387133655;1643387163767;1643387178858---values=;20031;50143;65234""",,,,,,,,,,,,,,,,,,8B,,,,,,,,,,yes,,,2022-01-28T16:31:35.000Z,363707,group_8,404981,Prediction2/Open3,1,2022-01-28T14:56:58.000Z,,,,not measured,,True
11,OpenEndedSeg_3,4,OpenEndedSeg_3,7,3,,,,,,,1,,,,,,,,,,,,,,,,,,,,,,,,,,,,,,,,,,,,"""times=1643387181030;1643387213711;1643387224544;1643387233145---values=;32614;43447;52048""","""times=1643387181030;1643387261732;1643387272315;1643387283076;1643387293756---values=;14440;25023;35784;46464""",,,,,,,,,,,,,,,,,,intact,,,,,,,,,,yes,,,2022-01-28T16:31:35.000Z,363707,group_8,404981,Prediction2/Open3,1,2022-01-28T14:56:58.000Z,,,,not measured,,True
11,OpenEndedSeg_3,4,OpenEndedSeg_3,8,15,,,,,,,4,,,,,,,,,,,,,,,,,,,,,,,,,,,,,,,,,,,,"""times=1643387313450;1643387334981;1643387352148;1643387373658---values=;21529;38696;60206""","""times=1643387313450;1643387387049;1643387400846;1643387420020---values=;6464;20261;39435""",,,,,,,,,,,,,,,,,,1B,,,,,,,,,,yes,,,2022-01-28T16:31:35.000Z,363707,group_8,404981,Prediction2/Open3,1,2022-01-28T14:56:58.000Z,,,,not measured,,True
11,OpenEndedSeg_3,3,Ready?,1,1,,,,,,,1,,,,,,,,,,,,,,,,,,,,,,,,,,,,,,,,,,,,,,,,,,,,,,,,,,,,,,,,,,,,,,,,,yes,,,2022-01-28T16:31:35.000Z,363707,group_8,404981,Prediction2/Open3,1,2022-01-28T14:56:58.000Z,,,,not measured,,True
11,OpenEndedSeg_3,2,Practice_OpenEnded,1,1,,,,,,,1,,,,,,,,,,,,,,,,,,,,,,,,,,,,,,,,,,,,"""times=1643386221133;1643386222370---values=8901;10138""","""times=1643386315550;1643386332440---values=26787;43677""",,,,,,,,,,,,,,,,,,,,,,,,,,,,yes,,,2022-01-28T16:31:35.000Z,363707,group_8,404981,Prediction2/Open3,1,2022-01-28T14:56:58.000Z,,,,not measured,,True
11,OpenEndedSeg_3,1,Instructions_Open,1,1,,,,,,,1,,,,,,,,,,,,,,,,,,,,,,,,,,,,,,,,,,,,,,,,,,,,,,,,,,,,,,,,,,,,,,,,,yes,,,2022-01-28T16:31:35.000Z,363707,group_8,404981,Prediction2/Open3,1,2022-01-28T14:56:58.000Z,,,,not measured,,True
9,Prediction 2,4,Prediction_2,1,60,,,,,Second,4_1B_prediction_5.mp3,6,,,,,,,incorrect_left,,,,,,,,,,,,,,,,,,,,,,,,,,,,,,,,,,Correct,,,,865.0,,,,,,,,,,,,1B,,,,,,,,yes,,,2022-01-28T16:31:35.000Z,363707,group_8,404981,Prediction2/Open3,1,2022-01-28T14:56:58.000Z,,,,not measured,,True
9,Prediction 2,4,Prediction_2,2,10,,,,,First,4_8B_prediction_8.mp3,1,,,,,,,correct_left,,,,,,,,,,,,,,,,,,,,,,,,,,,,,,,,,,Correct,,,,1050.0,,,,,,,,,,,,8B,,,,,,,,yes,,,2022-01-28T16:31:35.000Z,363707,group_8,404981,Prediction2/Open3,1,2022-01-28T14:56:58.000Z,,,,not measured,,True
9,Prediction 2,4,Prediction_2,3,16,,,,,First,4_8B_prediction_1.mp3,2,,,,,,,incorrect_left,,,,,,,,,,,,,,,,,,,,,,,,,,,,,,,,,,Incorrect,,,,999.0,,,,,,,,,,,,8B,,,,,,,,yes,,,2022-01-28T16:31:35.000Z,363707,group_8,404981,Prediction2/Open3,1,2022-01-28T14:56:58.000Z,,,,not measured,,True
9,Prediction 2,4,Prediction_2,4,9,,,,,Second,4_8B_prediction_4.mp3,1,,,,,,,correct_left,,,,,,,,,,,,,,,,,,,,,,,,,,,,,,,,,,Incorrect,,,,931.0,,,,,,,,,,,,8B,,,,,,,,yes,,,2022-01-28T16:31:35.000Z,363707,group_8,404981,Prediction2/Open3,1,2022-01-28T14:56:58.000Z,,,,not measured,,True
9,Prediction 2,4,Prediction_2,5,57,,,,,Second,4_1B_prediction_2.mp3,6,,,,,,,incorrect_left,,,,,,,,,,,,,,,,,,,,,,,,,,,,,,,,,,Correct,,,,917.0,,,,,,,,,,,,1B,,,,,,,,yes,,,2022-01-28T16:31:35.000Z,363707,group_8,404981,Prediction2/Open3,1,2022-01-28T14:56:58.000Z,,,,not measured,,True
9,Prediction 2,4,Prediction_2,6,22,,,,,Second,2_2B_prediction_5.mp3,3,,,,,,,correct_left,,,,,,,,,,,,,,,,,,,,,,,,,,,,,,,,,,Incorrect,,,,1101.0,,,,,,,,,,,,2B,,,,,,,,yes,,,2022-01-28T16:31:35.000Z,363707,group_8,404981,Prediction2/Open3,1,2022-01-28T14:56:58.000Z,,,,not measured,,True
9,Prediction 2,4,Prediction_2,7,41,,,,,First,2_1B_prediction_4.mp3,5,,,,,,,correct_left,,,,,,,,,,,,,,,,,,,,,,,,,,,,,,,,,,Correct,,,,1831.0,,,,,,,,,,,,1B,,,,,,,,yes,,,2022-01-28T16:31:35.000Z,363707,group_8,404981,Prediction2/Open3,1,2022-01-28T14:56:58.000Z,,,,not measured,,True
9,Prediction 2,4,Prediction_2,8,1,,,,,First,2_8B_prediction_4.mp3,1,,,,,,,correct_left,,,,,,,,,,,,,,,,,,,,,,,,,,,,,,,,,,Correct,,,,963.0,,,,,,,,,,,,8B,,,,,,,,yes,,,2022-01-28T16:31:35.000Z,363707,group_8,404981,Prediction2/Open3,1,2022-01-28T14:56:58.000Z,,,,not measured,,True
9,Prediction 2,4,Prediction_2,9,42,,,,,First,2_1B_prediction_5.mp3,5,,,,,,,correct_left,,,,,,,,,,,,,,,,,,,,,,,,,,,,,,,,,,Correct,,,,850.0,,,,,,,,,,,,1B,,,,,,,,yes,,,2022-01-28T16:31:35.000Z,363707,group_8,404981,Prediction2/Open3,1,2022-01-28T14:56:58.000Z,,,,not measured,,True
9,Prediction 2,4,Prediction_2,10,53,,,,,,2_1B_prediction_6.mp3,6,,,,,,,incorrect_left,,,,,,,,,,,,,,,,,,,,,,,,,,,,,,,,,,,,,,,,,,,,,,,,,,1B,,,,,,,,yes,,,2022-01-28T16:31:35.000Z,363707,group_8,404981,Prediction2/Open3,1,2022-01-28T14:56:58.000Z,,,,not measured,,True
9,Prediction 2,4,Prediction_2,11,7,,,,,First,4_8B_prediction_2.mp3,1,,,,,,,correct_left,,,,,,,,,,,,,,,,,,,,,,,,,,,,,,,,,,Correct,,,,800.0,,,,,,,,,,,,8B,,,,,,,,yes,,,2022-01-28T16:31:35.000Z,363707,group_8,404981,Prediction2/Open3,1,2022-01-28T14:56:58.000Z,,,,not measured,,True
9,Prediction 2,4,Prediction_2,12,27,,,,,First,4_2B_prediction_2.mp3,3,,,,,,,correct_left,,,,,,,,,,,,,,,,,,,,,,,,,,,,,,,,,,Correct,,,,933.0,,,,,,,,,,,,2B,,,,,,,,yes,,,2022-01-28T16:31:35.000Z,363707,group_8,404981,Prediction2/Open3,1,2022-01-28T14:56:58.000Z,,,,not measured,,True
9,Prediction 2,4,Prediction_2,13,36,,,,,Second,4_2B_prediction_1.mp3,4,,,,,,,incorrect_left,,,,,,,,,,,,,,,,,,,,,,,,,,,,,,,,,,Correct,,,,897.0,,,,,,,,,,,,2B,,,,,,,,yes,,,2022-01-28T16:31:35.000Z,363707,group_8,404981,Prediction2/Open3,1,2022-01-28T14:56:58.000Z,,,,not measured,,True
9,Prediction 2,4,Prediction_2,14,49,,,,,Second,4_1B_prediction_4.mp3,5,,,,,,,correct_left,,,,,,,,,,,,,,,,,,,,,,,,,,,,,,,,,,Incorrect,,,,950.0,,,,,,,,,,,,1B,,,,,,,,yes,,,2022-01-28T16:31:35.000Z,363707,group_8,404981,Prediction2/Open3,1,2022-01-28T14:56:58.000Z,,,,not measured,,True
9,Prediction 2,4,Prediction_2,15,45,,,,,Second,2_1B_prediction_8.mp3,5,,,,,,,correct_left,,,,,,,,,,,,,,,,,,,,,,,,,,,,,,,,,,Incorrect,,,,817.0,,,,,,,,,,,,1B,,,,,,,,yes,,,2022-01-28T16:31:35.000Z,363707,group_8,404981,Prediction2/Open3,1,2022-01-28T14:56:58.000Z,,,,not measured,,True
9,Prediction 2,4,Prediction_2,16,54,,,,,First,2_1B_prediction_7.mp3,6,,,,,,,incorrect_left,,,,,,,,,,,,,,,,,,,,,,,,,,,,,,,,,,Incorrect,,,,818.0,,,,,,,,,,,,1B,,,,,,,,yes,,,2022-01-28T16:31:35.000Z,363707,group_8,404981,Prediction2/Open3,1,2022-01-28T14:56:58.000Z,,,,not measured,,True
9,Prediction 2,4,Prediction_2,17,15,,,,,Second,2_8B_prediction_8.mp3,2,,,,,,,incorrect_left,,,,,,,,,,,,,,,,,,,,,,,,,,,,,,,,,,Correct,,,,934.0,,,,,,,,,,,,8B,,,,,,,,yes,,,2022-01-28T16:31:35.000Z,363707,group_8,404981,Prediction2/Open3,1,2022-01-28T14:56:58.000Z,,,,not measured,,True
9,Prediction 2,4,Prediction_2,18,18,,,,,First,4_8B_prediction_3.mp3,2,,,,,,,incorrect_left,,,,,,,,,,,,,,,,,,,,,,,,,,,,,,,,,,Incorrect,,,,1047.0,,,,,,,,,,,,8B,,,,,,,,yes,,,2022-01-28T16:31:35.000Z,363707,group_8,404981,Prediction2/Open3,1,2022-01-28T14:56:58.000Z,,,,not measured,,True
9,Prediction 2,4,Prediction_2,19,38,,,,,Second,4_2B_prediction_3.mp3,4,,,,,,,incorrect_left,,,,,,,,,,,,,,,,,,,,,,,,,,,,,,,,,,Correct,,,,881.0,,,,,,,,,,,,2B,,,,,,,,yes,,,2022-01-28T16:31:35.000Z,363707,group_8,404981,Prediction2/Open3,1,2022-01-28T14:56:58.000Z,,,,not measured,,True
9,Prediction 2,4,Prediction_2,20,13,,,,,First,2_8B_prediction_6.mp3,2,,,,,,,incorrect_left,,,,,,,,,,,,,,,,,,,,,,,,,,,,,,,,,,Incorrect,,,,948.0,,,,,,,,,,,,8B,,,,,,,,yes,,,2022-01-28T16:31:35.000Z,363707,group_8,404981,Prediction2/Open3,1,2022-01-28T14:56:58.000Z,,,,not measured,,True
9,Prediction 2,4,Prediction_2,21,46,,,,,First,4_1B_prediction_1.mp3,5,,,,,,,correct_left,,,,,,,,,,,,,,,,,,,,,,,,,,,,,,,,,,Correct,,,,817.0,,,,,,,,,,,,1B,,,,,,,,yes,,,2022-01-28T16:31:35.000Z,363707,group_8,404981,Prediction2/Open3,1,2022-01-28T14:56:58.000Z,,,,not measured,,True
9,Prediction 2,4,Prediction_2,22,40,,,,,First,4_2B_prediction_5.mp3,4,,,,,,,incorrect_left,,,,,,,,,,,,,,,,,,,,,,,,,,,,,,,,,,Incorrect,,,,1085.0,,,,,,,,,,,,2B,,,,,,,,yes,,,2022-01-28T16:31:35.000Z,363707,group_8,404981,Prediction2/Open3,1,2022-01-28T14:56:58.000Z,,,,not measured,,True
9,Prediction 2,4,Prediction_2,23,31,,,,,Second,2_2B_prediction_4.mp3,4,,,,,,,incorrect_left,,,,,,,,,,,,,,,,,,,,,,,,,,,,,,,,,,Correct,,,,1013.0,,,,,,,,,,,,2B,,,,,,,,yes,,,2022-01-28T16:31:35.000Z,363707,group_8,404981,Prediction2/Open3,1,2022-01-28T14:56:58.000Z,,,,not measured,,True
9,Prediction 2,4,Prediction_2,24,39,,,,,First,4_2B_prediction_4.mp3,4,,,,,,,incorrect_left,,,,,,,,,,,,,,,,,,,,,,,,,,,,,,,,,,Incorrect,,,,866.0,,,,,,,,,,,,2B,,,,,,,,yes,,,2022-01-28T16:31:35.000Z,363707,group_8,404981,Prediction2/Open3,1,2022-01-28T14:56:58.000Z,,,,not measured,,True
9,Prediction 2,4,Prediction_2,25,34,,,,,Second,2_2B_prediction_7.mp3,4,,,,,,,incorrect_left,,,,,,,,,,,,,,,,,,,,,,,,,,,,,,,,,,Correct,,,,849.0,,,,,,,,,,,,2B,,,,,,,,yes,,,2022-01-28T16:31:35.000Z,363707,group_8,404981,Prediction2/Open3,1,2022-01-28T14:56:58.000Z,,,,not measured,,True
9,Prediction 2,4,Prediction_2,26,25,,,,,Second,2_2B_prediction_8.mp3,3,,,,,,,correct_left,,,,,,,,,,,,,,,,,,,,,,,,,,,,,,,,,,Incorrect,,,,1230.0,,,,,,,,,,,,2B,,,,,,,,yes,,,2022-01-28T16:31:35.000Z,363707,group_8,404981,Prediction2/Open3,1,2022-01-28T14:56:58.000Z,,,,not measured,,True
9,Prediction 2,4,Prediction_2,27,48,,,,,First,4_1B_prediction_3.mp3,5,,,,,,,correct_left,,,,,,,,,,,,,,,,,,,,,,,,,,,,,,,,,,Correct,,,,1102.0,,,,,,,,,,,,1B,,,,,,,,yes,,,2022-01-28T16:31:35.000Z,363707,group_8,404981,Prediction2/Open3,1,2022-01-28T14:56:58.000Z,,,,not measured,,True
9,Prediction 2,4,Prediction_2,28,33,,,,,First,2_2B_prediction_6.mp3,4,,,,,,,incorrect_left,,,,,,,,,,,,,,,,,,,,,,,,,,,,,,,,,,Incorrect,,,,997.0,,,,,,,,,,,,2B,,,,,,,,yes,,,2022-01-28T16:31:35.000Z,363707,group_8,404981,Prediction2/Open3,1,2022-01-28T14:56:58.000Z,,,,not measured,,True
9,Prediction 2,4,Prediction_2,29,2,,,,,First,2_8B_prediction_5.mp3,1,,,,,,,correct_left,,,,,,,,,,,,,,,,,,,,,,,,,,,,,,,,,,Correct,,,,869.0,,,,,,,,,,,,8B,,,,,,,,yes,,,2022-01-28T16:31:35.000Z,363707,group_8,404981,Prediction2/Open3,1,2022-01-28T14:56:58.000Z,,,,not measured,,True
9,Prediction 2,4,Prediction_2,30,4,,,,,First,2_8B_prediction_7.mp3,1,,,,,,,correct_left,,,,,,,,,,,,,,,,,,,,,,,,,,,,,,,,,,Correct,,,,1434.0,,,,,,,,,,,,8B,,,,,,,,yes,,,2022-01-28T16:31:35.000Z,363707,group_8,404981,Prediction2/Open3,1,2022-01-28T14:56:58.000Z,,,,not measured,,True
9,Prediction 2,3,Ready?,1,1,,,,,,,1,,,,,,,,,,,,,,,,,,,,,,,,,,,,,,,,,,,,,,,,,,,,,,,,,,,,,,,,,,,,,,,,,yes,,,2022-01-28T16:31:35.000Z,363707,group_8,404981,Prediction2/Open3,1,2022-01-28T14:56:58.000Z,,,,not measured,,True
9,Prediction 2,2,Practice_Prediction,1,5,,,,,Second,,2,,,,,,,,,,incorrect_correct,,,,,,,,,,,,,,,,,,,,,,,,,,,,,,,Correct,,,,3035.0,,,,,,,,,,,,,,,,,,,,yes,,,2022-01-28T16:31:35.000Z,363707,group_8,404981,Prediction2/Open3,1,2022-01-28T14:56:58.000Z,,,,not measured,,True
9,Prediction 2,2,Practice_Prediction,2,6,,,,,First,,2,,,,,,,,,,incorrect_correct,,,,,,,,,,,,,,,,,,,,,,,,,,,,,,,Incorrect,,,,929.0,,,,,,,,,,,,,,,,,,,,yes,,,2022-01-28T16:31:35.000Z,363707,group_8,404981,Prediction2/Open3,1,2022-01-28T14:56:58.000Z,,,,not measured,,True
9,Prediction 2,2,Practice_Prediction,3,1,,,,,Second,,1,,,,,,,,,,correct_incorrect,,,,,,,,,,,,,,,,,,,,,,,,,,,,,,,Incorrect,,,,1217.0,,,,,,,,,,,,,,,,,,,,yes,,,2022-01-28T16:31:35.000Z,363707,group_8,404981,Prediction2/Open3,1,2022-01-28T14:56:58.000Z,,,,not measured,,True
9,Prediction 2,1,Instructions_Prediction,1,1,,,,,,,1,,,,,,,,,,,,,,,,,,,,,,,,,,,,,,,,,,,,,,,,,,,,,,,,,,,,,,,,,,,,,,,,,yes,,,2022-01-28T16:31:35.000Z,363707,group_8,404981,Prediction2/Open3,1,2022-01-28T14:56:58.000Z,,,,not measured,,True
7,AP_Screen,3,imported_AP_eval,1,1,,,,,,,1,,,,,,,,,,,,,,,,,,,,,,,,,,,,,,,0.0,,,,,,,,,,,,,,,,,,,,,,,,,,,,,,,,,,yes,,,2022-01-28T16:31:35.000Z,363707,group_8,404981,Prediction2/Open3,1,2022-01-28T14:56:58.000Z,,,,not measured,,True
7,AP_Screen,2,imported_AP_headphone test,1,6,,,,,,,6,,,,,,,,,,,,three,,,,,,,,,,,,,,,1.0,,,,0.0,,,,,,,,,,,,,,,,,,,,,,,,,,,,,,,,O_I_S,,yes,,,2022-01-28T16:31:35.000Z,363707,group_8,404981,Prediction2/Open3,1,2022-01-28T14:56:58.000Z,,,,not measured,,True
7,AP_Screen,2,imported_AP_headphone test,2,4,,,,,,,4,,,,,,,,,,,,one,,,,,,,,,,,,,,,1.0,,,,0.0,,,,,,,,,,,,,,,,,,,,,,,,,,,,,,,,S_I_O,,yes,,,2022-01-28T16:31:35.000Z,363707,group_8,404981,Prediction2/Open3,1,2022-01-28T14:56:58.000Z,,,,not measured,,True
7,AP_Screen,2,imported_AP_headphone test,3,5,,,,,,,5,,,,,,,,,,,,two,,,,,,,,,,,,,,,1.0,,,,0.0,,,,,,,,,,,,,,,,,,,,,,,,,,,,,,,,O_S_I,,yes,,,2022-01-28T16:31:35.000Z,363707,group_8,404981,Prediction2/Open3,1,2022-01-28T14:56:58.000Z,,,,not measured,,True
7,AP_Screen,2,imported_AP_headphone test,4,2,,,,,,,2,,,,,,,,,,,,two,,,,,,,,,,,,,,,1.0,,,,0.0,,,,,,,,,,,,,,,,,,,,,,,,,,,,,,,,I_S_O,,yes,,,2022-01-28T16:31:35.000Z,363707,group_8,404981,Prediction2/Open3,1,2022-01-28T14:56:58.000Z,,,,not measured,,True
7,AP_Screen,2,imported_AP_headphone test,5,1,,,,,,,1,,,,,,,,,,,,three,,,,,,,,,,,,,,,1.0,,,,0.0,,,,,,,,,,,,,,,,,,,,,,,,,,,,,,,,I_O_S,,yes,,,2022-01-28T16:31:35.000Z,363707,group_8,404981,Prediction2/Open3,1,2022-01-28T14:56:58.000Z,,,,not measured,,True
7,AP_Screen,2,imported_AP_headphone test,6,3,,,,,,,3,,,,,,,,,,,,one,,,,,,,,,,,,,,,1.0,,,,0.0,,,,,,,,,,,,,,,,,,,,,,,,,,,,,,,,S_O_I,,yes,,,2022-01-28T16:31:35.000Z,363707,group_8,404981,Prediction2/Open3,1,2022-01-28T14:56:58.000Z,,,,not measured,,True
7,AP_Screen,1,imported_AP_instruction,1,1,,,,,,,1,,,,,,,,,,,,,,,,,,,,,,,,,,,,,,,,,,,,,,,,,,,,,,,,,,,,,,,,,,,,,,,,,yes,,,2022-01-28T16:31:35.000Z,363707,group_8,404981,Prediction2/Open3,1,2022-01-28T14:56:58.000Z,,,,not measured,,True
6,HP_Screen,3,imported_HP Evaluation,1,1,,,,,,,1,,,,,,,,,,,,,,0.0,,,,,,,,,,,,,,,,,,,,,,,,,,,,,,,,,,,,,,,,,,,,,,,,,,,yes,,,2022-01-28T16:31:35.000Z,363707,group_8,404981,Prediction2/Open3,1,2022-01-28T14:56:58.000Z,,,,not measured,,True
6,HP_Screen,2,imported_HP Trials,1,2,,,,,,,1,,,,,,,,,,,,,,0.0,,,"""times=;;;;;;;;;;;;;;;;;---values=;;;;;;;;;;;;;;;;;""",hp3.2.flac,,,,,,,,,,,,,,,,,,,,,,,choice 2,,,,,,,,,,,,,,,,,,,hp3.2.flac,,,,,yes,,,2022-01-28T16:31:35.000Z,363707,group_8,404981,Prediction2/Open3,1,2022-01-28T14:56:58.000Z,,,,not measured,,True
6,HP_Screen,2,imported_HP Trials,2,3,,,,,,,1,,,,,,,,,,,,,,0.0,,,"""times=;;;;;;;;;;;;;;;;;---values=;;;;;;;;;;;;;;;;;""",hp4.2.flac,,,,,,,,,,,,,,,,,,,,,,,choice 2,,,,,,,,,,,,,,,,,,,hp4.2.flac,,,,,yes,,,2022-01-28T16:31:35.000Z,363707,group_8,404981,Prediction2/Open3,1,2022-01-28T14:56:58.000Z,,,,not measured,,True
6,HP_Screen,2,imported_HP Trials,3,1,,,,,,,1,,,,,,,,,,,,,,0.0,,,"""times=;;;;;;;;;;;;;;;;;---values=;;;;;;;;;;;;;;;;;""",hp2.2.flac,,,,,,,,,,,,,,,,,,,,,,,choice 2,,,,,,,,,,,,,,,,,,,hp2.2.flac,,,,,yes,,,2022-01-28T16:31:35.000Z,363707,group_8,404981,Prediction2/Open3,1,2022-01-28T14:56:58.000Z,,,,not measured,,True
6,HP_Screen,2,imported_HP Trials,4,6,,,,,,,1,,,,,,,,,,,,,,0.0,,,"""times=;;;;;;;;;;;;;;;;;---values=;;;;;;;;;;;;;;;;;""",hp2.3.flac,,,,,,,,,,,,,,,,,,,,,,,choice 3,,,,,,,,,,,,,,,,,,,hp2.3.flac,,,,,yes,,,2022-01-28T16:31:35.000Z,363707,group_8,404981,Prediction2/Open3,1,2022-01-28T14:56:58.000Z,,,,not measured,,True
6,HP_Screen,2,imported_HP Trials,5,4,,,,,,,1,,,,,,,,,,,,,,0.0,,,"""times=;;;;;;;;;;;;;;;;;---values=;;;;;;;;;;;;;;;;;""",hp1.1.flac,,,,,,,,,,,,,,,,,,,,,,,choice 1,,,,,,,,,,,,,,,,,,,hp1.1.flac,,,,,yes,,,2022-01-28T16:31:35.000Z,363707,group_8,404981,Prediction2/Open3,1,2022-01-28T14:56:58.000Z,,,,not measured,,True
6,HP_Screen,2,imported_HP Trials,6,5,,,,,,,1,,,,,,,,,,,,,,0.0,,,"""times=;;;;;;;;;;;;;;;;;---values=;;;;;;;;;;;;;;;;;""",hp6.3.flac,,,,,,,,,,,,,,,,,,,,,,,choice 3,,,,,,,,,,,,,,,,,,,hp6.3.flac,,,,,yes,,,2022-01-28T16:31:35.000Z,363707,group_8,404981,Prediction2/Open3,1,2022-01-28T14:56:58.000Z,,,,not measured,,True
6,HP_Screen,1,imported_HP Instructions,1,1,,,,,,,1,,,,,,,,,,,,,,,3.0,,,,,,,,,,,,,,,,,,,,,,,,,,,,,,,,,,,,,,,,,,,,,,,,,,yes,,,2022-01-28T16:31:35.000Z,363707,group_8,404981,Prediction2/Open3,1,2022-01-28T14:56:58.000Z,,,,not measured,,True
4,GenInstructPredOpen,1,InstructionsPredOpen,1,1,,,,,,,1,,,,,,,,,,,,,,,,,,,,,,,,,,,,,,,,,,,,,,,,,,,,,,,,,,,,,,,,,,,,,,,,,yes,,,2022-01-28T16:31:35.000Z,363707,group_8,404981,Prediction2/Open3,1,2022-01-28T14:56:58.000Z,,,,not measured,,True
2,Consent,1,Consent,1,1,,,,,,,1,,,,,,,,,,,,,,,,,,,,,,,,,,,,,,,,,,,,,,,,,,,,,,,,,,,,,,,,,,,,,,,,,yes,,,2022-01-28T16:31:35.000Z,363707,group_8,404981,Prediction2/Open3,1,2022-01-28T14:56:58.000Z,,,,not measured,,True
