Block_Nr,Block_Name,Task_Nr,Task_Name,Trial_Nr,Trial_Id,ab_pitch,age_range,answer,best_instru,choice,clip,Condition_Id,conditions,consent,correct_incorrect_m_2,correct_incorrect_m_3,correct_incorrect_mem_1,correct_incorrect_p_1,correct_incorrect_p_2,correct_incorrect_p_3,correct_incorrect_practice_m,correct_incorrect_practice_p,correctCount,decision,earworm,errorCount,exampleCount,familiarity,fileArray,filePick,Frequenc,genre,genre_3,genre_4,hour,imagery,imagery_2,Instr,isCorrect,listen_time,music_theory,name_instru,nrErrors,num_instru,participant_choice,participant_choice_2,participant_choice2,participant_spacePress,participant_spacePress2,played_notplayed,practice_catseg_scramble,relative_pitch,response,response_seg,response_seg2,response_Time2,responseTime,retestCount,scramble_cat_1,scramble_cat_3,scramble_cat_4,scramble_catseg_4,scramble_level,scramble_m_1,scramble_m_2,scramble_m_3,scramble_open_3,scramble_p_1,scramble_p_2,scramble_p_3,set1response,soundName,strategy,time_atClipStart1,toneSequence,always_fullscreen,completed,crowdsourcing_code,crowdsourcing_subj_id,end_time,exp_subject_id,group_name,rec_session_id,session_name,session_nr,start_time,subj_counter_global,subj_counter_per_group,subject_code,time_delay_offset,time_measure_std,unlocked
13,Post-Survey,1,Post-Survey,1,1,No,0.0,,voice,,,1,,,,,,,,,,,,,4.0,,,1.0,,,Monthly,Rap,electronic music,pop,1.5 hours,,4.0,2 years,,3-4 hours,0 years,"Piano, Voice (Kinda)",,1.0,,,,,,option_1,,No,,,,,,,,,,,,,,,,,,,,,I was counting seconds and looking for changes,,,,yes,,,2022-01-28T21:25:50.000Z,363871,undefined,405244,undefined,1,2022-01-28T20:28:30.000Z,,,,not measured,,True
11,CategorizationSeg_4,4,CategorizationSeg_4,1,7,,,,,,,2,,,,,,,,,,,,,,,,,,,,,,,,,,,,,,,,,,Every 16 seconds (every 8 measures),,,,,,,,,Correct,929.0,,,,,,8B,,,,,,,,,,,,,,,yes,,,2022-01-28T21:25:50.000Z,363871,undefined,405244,undefined,1,2022-01-28T20:28:30.000Z,,,,not measured,,True
11,CategorizationSeg_4,4,CategorizationSeg_4,2,11,,,,,,,3,,,,,,,,,,,,,,,,,,,,,,,,,,,,,,,,,Every 4 seconds (every 2 measures),Every 4 seconds (every 2 measures),,,,,,,,Correct,Correct,1653.0,2366.0,,,,,2B,,,,,,,,,,,,,,,yes,,,2022-01-28T21:25:50.000Z,363871,undefined,405244,undefined,1,2022-01-28T20:28:30.000Z,,,,not measured,,True
11,CategorizationSeg_4,4,CategorizationSeg_4,3,8,,,,,,,2,,,,,,,,,,,,,,,,,,,,,,,,,,,,,,,,,Every 16 seconds (every 8 measures),Every 16 seconds (every 8 measures),,,,,,,,Correct,Correct,1297.0,1054.0,,,,,8B,,,,,,,,,,,,,,,yes,,,2022-01-28T21:25:50.000Z,363871,undefined,405244,undefined,1,2022-01-28T20:28:30.000Z,,,,not measured,,True
11,CategorizationSeg_4,4,CategorizationSeg_4,4,15,,,,,,,4,,,,,,,,,,,,,,,,,,,,,,,,,,,,,,,,,Every 2 seconds (every 1 measure),Every 2 seconds (every 1 measure),,,,,,,,Correct,Correct,2625.0,2696.0,,,,,1B,,,,,,,,,,,,,,,yes,,,2022-01-28T21:25:50.000Z,363871,undefined,405244,undefined,1,2022-01-28T20:28:30.000Z,,,,not measured,,True
11,CategorizationSeg_4,4,CategorizationSeg_4,5,9,,,,,,,3,,,,,,,,,,,,,,,,,,,,,,,,,,,,,,,,,,,,,,,,,,,,,,,,,,2B,,,,,,,,,,,,,,,yes,,,2022-01-28T21:25:50.000Z,363871,undefined,405244,undefined,1,2022-01-28T20:28:30.000Z,,,,not measured,,True
11,CategorizationSeg_4,4,CategorizationSeg_4,6,16,,,,,,,4,,,,,,,,,,,,,,,,,,,,,,,,,,,,,,,,,Every 4 seconds (every 2 measures),Every 2 seconds (every 1 measure),,,,,,,,Incorrect,Correct,1888.0,2354.0,,,,,1B,,,,,,,,,,,,,,,yes,,,2022-01-28T21:25:50.000Z,363871,undefined,405244,undefined,1,2022-01-28T20:28:30.000Z,,,,not measured,,True
11,CategorizationSeg_4,4,CategorizationSeg_4,7,3,,,,,,,1,,,,,,,,,,,,,,,,,,,,,,,,,,,,,,,,,,Every 16 seconds (every 8 measures),,,,,,,,,Incorrect,1177.0,,,,,,intact,,,,,,,,,,,,,,,yes,,,2022-01-28T21:25:50.000Z,363871,undefined,405244,undefined,1,2022-01-28T20:28:30.000Z,,,,not measured,,True
11,CategorizationSeg_4,4,CategorizationSeg_4,8,4,,,,,,,1,,,,,,,,,,,,,,,,,,,,,,,,,,,,,,,,,Never,Never,,,,,,,,Correct,Correct,1236.0,885.0,,,,,intact,,,,,,,,,,,,,,,yes,,,2022-01-28T21:25:50.000Z,363871,undefined,405244,undefined,1,2022-01-28T20:28:30.000Z,,,,not measured,,True
11,CategorizationSeg_4,3,Ready?,1,1,,,,,,,1,,,,,,,,,,,,,,,,,,,,,,,,,,,,,,,,,,,,,,,,,,,,,,,,,,,,,,,,,,,,,,,,,yes,,,2022-01-28T21:25:50.000Z,363871,undefined,405244,undefined,1,2022-01-28T20:28:30.000Z,,,,not measured,,True
11,CategorizationSeg_4,2,Practice_Categorization,1,3,,,,,,,3,,,,,,,,,,,,,,,,,,,,,,,,,,,,,,,,,Never,Never,,,,,2B,,,Incorrect,Incorrect,8702.0,32500.0,,,,,,,,,,,,,,,,,,,,yes,,,2022-01-28T21:25:50.000Z,363871,undefined,405244,undefined,1,2022-01-28T20:28:30.000Z,,,,not measured,,True
11,CategorizationSeg_4,1,Instructions for Categorization Seg.,1,1,,,,,,,1,,,,,,,,,,,,,,,,,,,,,,,,,,,,,,,,,,,,,,,,,,,,,,,,,,,,,,,,,,,,,,,,,yes,,,2022-01-28T21:25:50.000Z,363871,undefined,405244,undefined,1,2022-01-28T20:28:30.000Z,,,,not measured,,True
9,Memory 1,4,Memory_1,1,26,,,,,Second,3_2B_memory_1.mp3,3,,,,,correct_left,,,,,,,,,,,,,,,,,,,,,,,,,,,,,,,,,,,,Incorrect,,,,1218.0,,,,,,,2B,,,,,,,,,,,,,yes,,,2022-01-28T21:25:50.000Z,363871,undefined,405244,undefined,1,2022-01-28T20:28:30.000Z,,,,not measured,,True
9,Memory 1,4,Memory_1,2,35,,,,,First,2_2B_memory_5.mp3,4,,,,,incorrect_left,,,,,,,,,,,,,,,,,,,,,,,,,,,,,,,,,,,,Incorrect,,,,1206.0,,,,,,,2B,,,,,,,,,,,,,yes,,,2022-01-28T21:25:50.000Z,363871,undefined,405244,undefined,1,2022-01-28T20:28:30.000Z,,,,not measured,,True
9,Memory 1,4,Memory_1,3,29,,,,,First,3_2B_memory_4.mp3,3,,,,,correct_left,,,,,,,,,,,,,,,,,,,,,,,,,,,,,,,,,,,,Correct,,,,1156.0,,,,,,,2B,,,,,,,,,,,,,yes,,,2022-01-28T21:25:50.000Z,363871,undefined,405244,undefined,1,2022-01-28T20:28:30.000Z,,,,not measured,,True
9,Memory 1,4,Memory_1,4,17,,,,,Second,3_8B_memory_2.mp3,2,,,,,incorrect_left,,,,,,,,,,,,,,,,,,,,,,,,,,,,,,,,,,,,Correct,,,,760.0,,,,,,,8B,,,,,,,,,,,,,yes,,,2022-01-28T21:25:50.000Z,363871,undefined,405244,undefined,1,2022-01-28T20:28:30.000Z,,,,not measured,,True
9,Memory 1,4,Memory_1,5,53,,,,,First,2_1B_memory_3.mp3,6,,,,,incorrect_left,,,,,,,,,,,,,,,,,,,,,,,,,,,,,,,,,,,,Incorrect,,,,3702.0,,,,,,,1B,,,,,,,,,,,,,yes,,,2022-01-28T21:25:50.000Z,363871,undefined,405244,undefined,1,2022-01-28T20:28:30.000Z,,,,not measured,,True
9,Memory 1,4,Memory_1,6,46,,,,,First,3_1B_memory_1.mp3,5,,,,,correct_left,,,,,,,,,,,,,,,,,,,,,,,,,,,,,,,,,,,,Correct,,,,1136.0,,,,,,,1B,,,,,,,,,,,,,yes,,,2022-01-28T21:25:50.000Z,363871,undefined,405244,undefined,1,2022-01-28T20:28:30.000Z,,,,not measured,,True
9,Memory 1,4,Memory_1,7,57,,,,,Second,3_1B_memory_2.mp3,6,,,,,incorrect_left,,,,,,,,,,,,,,,,,,,,,,,,,,,,,,,,,,,,Correct,,,,760.0,,,,,,,1B,,,,,,,,,,,,,yes,,,2022-01-28T21:25:50.000Z,363871,undefined,405244,undefined,1,2022-01-28T20:28:30.000Z,,,,not measured,,True
9,Memory 1,4,Memory_1,8,4,,,,,First,2_8B_memory_4.mp3,1,,,,,correct_left,,,,,,,,,,,,,,,,,,,,,,,,,,,,,,,,,,,,Correct,,,,637.0,,,,,,,8B,,,,,,,,,,,,,yes,,,2022-01-28T21:25:50.000Z,363871,undefined,405244,undefined,1,2022-01-28T20:28:30.000Z,,,,not measured,,True
9,Memory 1,4,Memory_1,9,24,,,,,First,2_2B_memory_4.mp3,3,,,,,correct_left,,,,,,,,,,,,,,,,,,,,,,,,,,,,,,,,,,,,Correct,,,,1404.0,,,,,,,2B,,,,,,,,,,,,,yes,,,2022-01-28T21:25:50.000Z,363871,undefined,405244,undefined,1,2022-01-28T20:28:30.000Z,,,,not measured,,True
9,Memory 1,4,Memory_1,10,58,,,,,Second,3_1B_memory_3.mp3,6,,,,,incorrect_left,,,,,,,,,,,,,,,,,,,,,,,,,,,,,,,,,,,,Correct,,,,3090.0,,,,,,,1B,,,,,,,,,,,,,yes,,,2022-01-28T21:25:50.000Z,363871,undefined,405244,undefined,1,2022-01-28T20:28:30.000Z,,,,not measured,,True
9,Memory 1,4,Memory_1,11,33,,,,,Second,2_2B_memory_3.mp3,4,,,,,incorrect_left,,,,,,,,,,,,,,,,,,,,,,,,,,,,,,,,,,,,Correct,,,,1282.0,,,,,,,2B,,,,,,,,,,,,,yes,,,2022-01-28T21:25:50.000Z,363871,undefined,405244,undefined,1,2022-01-28T20:28:30.000Z,,,,not measured,,True
9,Memory 1,4,Memory_1,12,30,,,,,First,3_2B_memory_5.mp3,3,,,,,correct_left,,,,,,,,,,,,,,,,,,,,,,,,,,,,,,,,,,,,Correct,,,,773.0,,,,,,,2B,,,,,,,,,,,,,yes,,,2022-01-28T21:25:50.000Z,363871,undefined,405244,undefined,1,2022-01-28T20:28:30.000Z,,,,not measured,,True
9,Memory 1,4,Memory_1,13,19,,,,,Second,3_8B_memory_4.mp3,2,,,,,incorrect_left,,,,,,,,,,,,,,,,,,,,,,,,,,,,,,,,,,,,Correct,,,,828.0,,,,,,,8B,,,,,,,,,,,,,yes,,,2022-01-28T21:25:50.000Z,363871,undefined,405244,undefined,1,2022-01-28T20:28:30.000Z,,,,not measured,,True
9,Memory 1,4,Memory_1,14,59,,,,,Second,3_1B_memory_4.mp3,6,,,,,incorrect_left,,,,,,,,,,,,,,,,,,,,,,,,,,,,,,,,,,,,Correct,,,,1450.0,,,,,,,1B,,,,,,,,,,,,,yes,,,2022-01-28T21:25:50.000Z,363871,undefined,405244,undefined,1,2022-01-28T20:28:30.000Z,,,,not measured,,True
9,Memory 1,4,Memory_1,15,50,,,,,First,3_1B_memory_5.mp3,5,,,,,correct_left,,,,,,,,,,,,,,,,,,,,,,,,,,,,,,,,,,,,Correct,,,,1438.0,,,,,,,1B,,,,,,,,,,,,,yes,,,2022-01-28T21:25:50.000Z,363871,undefined,405244,undefined,1,2022-01-28T20:28:30.000Z,,,,not measured,,True
9,Memory 1,4,Memory_1,16,12,,,,,Second,2_8B_memory_2.mp3,2,,,,,incorrect_left,,,,,,,,,,,,,,,,,,,,,,,,,,,,,,,,,,,,Correct,,,,730.0,,,,,,,8B,,,,,,,,,,,,,yes,,,2022-01-28T21:25:50.000Z,363871,undefined,405244,undefined,1,2022-01-28T20:28:30.000Z,,,,not measured,,True
9,Memory 1,4,Memory_1,17,45,,,,,First,2_1B_memory_5.mp3,5,,,,,correct_left,,,,,,,,,,,,,,,,,,,,,,,,,,,,,,,,,,,,Correct,,,,876.0,,,,,,,1B,,,,,,,,,,,,,yes,,,2022-01-28T21:25:50.000Z,363871,undefined,405244,undefined,1,2022-01-28T20:28:30.000Z,,,,not measured,,True
9,Memory 1,4,Memory_1,18,37,,,,,Second,3_2B_memory_2.mp3,4,,,,,incorrect_left,,,,,,,,,,,,,,,,,,,,,,,,,,,,,,,,,,,,Correct,,,,678.0,,,,,,,2B,,,,,,,,,,,,,yes,,,2022-01-28T21:25:50.000Z,363871,undefined,405244,undefined,1,2022-01-28T20:28:30.000Z,,,,not measured,,True
9,Memory 1,4,Memory_1,19,21,,,,,Second,2_2B_memory_1.mp3,3,,,,,correct_left,,,,,,,,,,,,,,,,,,,,,,,,,,,,,,,,,,,,Incorrect,,,,1391.0,,,,,,,2B,,,,,,,,,,,,,yes,,,2022-01-28T21:25:50.000Z,363871,undefined,405244,undefined,1,2022-01-28T20:28:30.000Z,,,,not measured,,True
9,Memory 1,4,Memory_1,20,10,,,,,First,3_8B_memory_5.mp3,1,,,,,correct_left,,,,,,,,,,,,,,,,,,,,,,,,,,,,,,,,,,,,Correct,,,,830.0,,,,,,,8B,,,,,,,,,,,,,yes,,,2022-01-28T21:25:50.000Z,363871,undefined,405244,undefined,1,2022-01-28T20:28:30.000Z,,,,not measured,,True
9,Memory 1,4,Memory_1,21,51,,,,,Second,2_1B_memory_1.mp3,6,,,,,incorrect_left,,,,,,,,,,,,,,,,,,,,,,,,,,,,,,,,,,,,Correct,,,,858.0,,,,,,,1B,,,,,,,,,,,,,yes,,,2022-01-28T21:25:50.000Z,363871,undefined,405244,undefined,1,2022-01-28T20:28:30.000Z,,,,not measured,,True
9,Memory 1,4,Memory_1,22,5,,,,,,2_8B_memory_5.mp3,1,,,,,correct_left,,,,,,,,,,,,,,,,,,,,,,,,,,,,,,,,,,,,,,,,,,,,,,,8B,,,,,,,,,,,,,yes,,,2022-01-28T21:25:50.000Z,363871,undefined,405244,undefined,1,2022-01-28T20:28:30.000Z,,,,not measured,,True
9,Memory 1,4,Memory_1,23,54,,,,,Second,2_1B_memory_4.mp3,6,,,,,incorrect_left,,,,,,,,,,,,,,,,,,,,,,,,,,,,,,,,,,,,Correct,,,,868.0,,,,,,,1B,,,,,,,,,,,,,yes,,,2022-01-28T21:25:50.000Z,363871,undefined,405244,undefined,1,2022-01-28T20:28:30.000Z,,,,not measured,,True
9,Memory 1,4,Memory_1,24,8,,,,,First,3_8B_memory_3.mp3,1,,,,,correct_left,,,,,,,,,,,,,,,,,,,,,,,,,,,,,,,,,,,,Correct,,,,782.0,,,,,,,8B,,,,,,,,,,,,,yes,,,2022-01-28T21:25:50.000Z,363871,undefined,405244,undefined,1,2022-01-28T20:28:30.000Z,,,,not measured,,True
9,Memory 1,4,Memory_1,25,32,,,,,First,2_2B_memory_2.mp3,4,,,,,incorrect_left,,,,,,,,,,,,,,,,,,,,,,,,,,,,,,,,,,,,Incorrect,,,,757.0,,,,,,,2B,,,,,,,,,,,,,yes,,,2022-01-28T21:25:50.000Z,363871,undefined,405244,undefined,1,2022-01-28T20:28:30.000Z,,,,not measured,,True
9,Memory 1,4,Memory_1,26,52,,,,,Second,2_1B_memory_2.mp3,6,,,,,incorrect_left,,,,,,,,,,,,,,,,,,,,,,,,,,,,,,,,,,,,Correct,,,,3973.0,,,,,,,1B,,,,,,,,,,,,,yes,,,2022-01-28T21:25:50.000Z,363871,undefined,405244,undefined,1,2022-01-28T20:28:30.000Z,,,,not measured,,True
9,Memory 1,4,Memory_1,27,1,,,,,Second,2_8B_memory_1.mp3,1,,,,,correct_left,,,,,,,,,,,,,,,,,,,,,,,,,,,,,,,,,,,,Incorrect,,,,2125.0,,,,,,,8B,,,,,,,,,,,,,yes,,,2022-01-28T21:25:50.000Z,363871,undefined,405244,undefined,1,2022-01-28T20:28:30.000Z,,,,not measured,,True
9,Memory 1,4,Memory_1,28,28,,,,,First,3_2B_memory_3.mp3,3,,,,,correct_left,,,,,,,,,,,,,,,,,,,,,,,,,,,,,,,,,,,,Correct,,,,965.0,,,,,,,2B,,,,,,,,,,,,,yes,,,2022-01-28T21:25:50.000Z,363871,undefined,405244,undefined,1,2022-01-28T20:28:30.000Z,,,,not measured,,True
9,Memory 1,4,Memory_1,29,16,,,,,Second,3_8B_memory_1.mp3,2,,,,,incorrect_left,,,,,,,,,,,,,,,,,,,,,,,,,,,,,,,,,,,,Correct,,,,1033.0,,,,,,,8B,,,,,,,,,,,,,yes,,,2022-01-28T21:25:50.000Z,363871,undefined,405244,undefined,1,2022-01-28T20:28:30.000Z,,,,not measured,,True
9,Memory 1,4,Memory_1,30,3,,,,,First,2_8B_memory_3.mp3,1,,,,,correct_left,,,,,,,,,,,,,,,,,,,,,,,,,,,,,,,,,,,,Correct,,,,753.0,,,,,,,8B,,,,,,,,,,,,,yes,,,2022-01-28T21:25:50.000Z,363871,undefined,405244,undefined,1,2022-01-28T20:28:30.000Z,,,,not measured,,True
9,Memory 1,3,Ready?,1,1,,,,,,,1,,,,,,,,,,,,,,,,,,,,,,,,,,,,,,,,,,,,,,,,,,,,,,,,,,,,,,,,,,,,,,,,,yes,,,2022-01-28T21:25:50.000Z,363871,undefined,405244,undefined,1,2022-01-28T20:28:30.000Z,,,,not measured,,True
9,Memory 1,2,Practice_Memory,1,4,,,,,Second,,2,,,,,,,,,incorrect_correc,,,,,,,,,,,,,,,,,,,,,,,,,,,,,,,,Correct,,,,1365.0,,,,,,,,,,,,,,,,,,,,yes,,,2022-01-28T21:25:50.000Z,363871,undefined,405244,undefined,1,2022-01-28T20:28:30.000Z,,,,not measured,,True
9,Memory 1,2,Practice_Memory,2,3,,,,,First,,1,,,,,,,,,correct_incorrect,,,,,,,,,,,,,,,,,,,,,,,,,,,,,,,,Correct,,,,2197.0,,,,,,,,,,,,,,,,,,,,yes,,,2022-01-28T21:25:50.000Z,363871,undefined,405244,undefined,1,2022-01-28T20:28:30.000Z,,,,not measured,,True
9,Memory 1,2,Practice_Memory,3,5,,,,,Second,,2,,,,,,,,,incorrect_correc,,,,,,,,,,,,,,,,,,,,,,,,,,,,,,,,Correct,,,,1028.0,,,,,,,,,,,,,,,,,,,,yes,,,2022-01-28T21:25:50.000Z,363871,undefined,405244,undefined,1,2022-01-28T20:28:30.000Z,,,,not measured,,True
9,Memory 1,1,Instructions_Memory,1,1,,,,,,,1,,,,,,,,,,,,,,,,,,,,,,,,,,,,,,,,,,,,,,,,,,,,,,,,,,,,,,,,,,,,,,,,,yes,,,2022-01-28T21:25:50.000Z,363871,undefined,405244,undefined,1,2022-01-28T20:28:30.000Z,,,,not measured,,True
7,HP_Screen,3,imported_HP Evaluation,1,1,,,,,,,1,,,,,,,,,,,,,,0.0,,,,,,,,,,,,,,,,,,,,,,,,,,,,,,,,,,,,,,,,,,,,,,,,,,,yes,,,2022-01-28T21:25:50.000Z,363871,undefined,405244,undefined,1,2022-01-28T20:28:30.000Z,,,,not measured,,True
7,HP_Screen,2,imported_HP Trials,1,1,,,,,,,1,,,,,,,,,,,,,,0.0,,,"""times=;;;;;;;;;;;;;;;;;---values=;;;;;;;;;;;;;;;;;""",hp1.2.flac,,,,,,,,,,,,,,,,,,,,,,,choice 2,,,,,,,,,,,,,,,,,,,hp1.2.flac,,,,,yes,,,2022-01-28T21:25:50.000Z,363871,undefined,405244,undefined,1,2022-01-28T20:28:30.000Z,,,,not measured,,True
7,HP_Screen,2,imported_HP Trials,2,2,,,,,,,1,,,,,,,,,,,,,,0.0,,,"""times=;;;;;;;;;;;;;;;;;---values=;;;;;;;;;;;;;;;;;""",hp6.3.flac,,,,,,,,,,,,,,,,,,,,,,,choice 3,,,,,,,,,,,,,,,,,,,hp6.3.flac,,,,,yes,,,2022-01-28T21:25:50.000Z,363871,undefined,405244,undefined,1,2022-01-28T20:28:30.000Z,,,,not measured,,True
7,HP_Screen,2,imported_HP Trials,3,4,,,,,,,1,,,,,,,,,,,,,,0.0,,,"""times=;;;;;;;;;;;;;;;;;---values=;;;;;;;;;;;;;;;;;""",hp1.1.flac,,,,,,,,,,,,,,,,,,,,,,,choice 1,,,,,,,,,,,,,,,,,,,hp1.1.flac,,,,,yes,,,2022-01-28T21:25:50.000Z,363871,undefined,405244,undefined,1,2022-01-28T20:28:30.000Z,,,,not measured,,True
7,HP_Screen,2,imported_HP Trials,4,5,,,,,,,1,,,,,,,,,,,,,,0.0,,,"""times=;;;;;;;;;;;;;;;;;---values=;;;;;;;;;;;;;;;;;""",hp3.3.flac,,,,,,,,,,,,,,,,,,,,,,,choice 3,,,,,,,,,,,,,,,,,,,hp3.3.flac,,,,,yes,,,2022-01-28T21:25:50.000Z,363871,undefined,405244,undefined,1,2022-01-28T20:28:30.000Z,,,,not measured,,True
7,HP_Screen,2,imported_HP Trials,5,6,,,,,,,1,,,,,,,,,,,,,,0.0,,,"""times=;;;;;;;;;;;;;;;;;---values=;;;;;;;;;;;;;;;;;""",hp4.2.flac,,,,,,,,,,,,,,,,,,,,,,,choice 2,,,,,,,,,,,,,,,,,,,hp4.2.flac,,,,,yes,,,2022-01-28T21:25:50.000Z,363871,undefined,405244,undefined,1,2022-01-28T20:28:30.000Z,,,,not measured,,True
7,HP_Screen,2,imported_HP Trials,6,3,,,,,,,1,,,,,,,,,,,,,,0.0,,,"""times=;;;;;;;;;;;;;;;;;---values=;;;;;;;;;;;;;;;;;""",hp6.1.flac,,,,,,,,,,,,,,,,,,,,,,,choice 1,,,,,,,,,,,,,,,,,,,hp6.1.flac,,,,,yes,,,2022-01-28T21:25:50.000Z,363871,undefined,405244,undefined,1,2022-01-28T20:28:30.000Z,,,,not measured,,True
7,HP_Screen,1,imported_HP Instructions,1,1,,,,,,,1,,,,,,,,,,,,,,,3.0,,,,,,,,,,,,,,,,,,,,,,,,,,,,,,,,,,,,,,,,,,,,,,,,,,yes,,,2022-01-28T21:25:50.000Z,363871,undefined,405244,undefined,1,2022-01-28T20:28:30.000Z,,,,not measured,,True
6,AP_Screen,3,imported_AP_eval,1,1,,,,,,,1,,,,,,,,,,,,,,,,,,,,,,,,,,,,,,,0.0,,,,,,,,,,,,,,,,,,,,,,,,,,,,,,,,,,yes,,,2022-01-28T21:25:50.000Z,363871,undefined,405244,undefined,1,2022-01-28T20:28:30.000Z,,,,not measured,,True
6,AP_Screen,2,imported_AP_headphone test,1,5,,,,,,,5,,,,,,,,,,,,two,,,,,,,,,,,,,,,1.0,,,,0.0,,,,,,,,,,,,,,,,,,,,,,,,,,,,,,,,O_S_I,,yes,,,2022-01-28T21:25:50.000Z,363871,undefined,405244,undefined,1,2022-01-28T20:28:30.000Z,,,,not measured,,True
6,AP_Screen,2,imported_AP_headphone test,2,6,,,,,,,6,,,,,,,,,,,,three,,,,,,,,,,,,,,,1.0,,,,0.0,,,,,,,,,,,,,,,,,,,,,,,,,,,,,,,,O_I_S,,yes,,,2022-01-28T21:25:50.000Z,363871,undefined,405244,undefined,1,2022-01-28T20:28:30.000Z,,,,not measured,,True
6,AP_Screen,2,imported_AP_headphone test,3,4,,,,,,,4,,,,,,,,,,,,one,,,,,,,,,,,,,,,1.0,,,,0.0,,,,,,,,,,,,,,,,,,,,,,,,,,,,,,,,S_I_O,,yes,,,2022-01-28T21:25:50.000Z,363871,undefined,405244,undefined,1,2022-01-28T20:28:30.000Z,,,,not measured,,True
6,AP_Screen,2,imported_AP_headphone test,4,3,,,,,,,3,,,,,,,,,,,,one,,,,,,,,,,,,,,,1.0,,,,0.0,,,,,,,,,,,,,,,,,,,,,,,,,,,,,,,,S_O_I,,yes,,,2022-01-28T21:25:50.000Z,363871,undefined,405244,undefined,1,2022-01-28T20:28:30.000Z,,,,not measured,,True
6,AP_Screen,2,imported_AP_headphone test,5,1,,,,,,,1,,,,,,,,,,,,three,,,,,,,,,,,,,,,1.0,,,,0.0,,,,,,,,,,,,,,,,,,,,,,,,,,,,,,,,I_O_S,,yes,,,2022-01-28T21:25:50.000Z,363871,undefined,405244,undefined,1,2022-01-28T20:28:30.000Z,,,,not measured,,True
6,AP_Screen,2,imported_AP_headphone test,6,2,,,,,,,2,,,,,,,,,,,,two,,,,,,,,,,,,,,,1.0,,,,0.0,,,,,,,,,,,,,,,,,,,,,,,,,,,,,,,,I_S_O,,yes,,,2022-01-28T21:25:50.000Z,363871,undefined,405244,undefined,1,2022-01-28T20:28:30.000Z,,,,not measured,,True
6,AP_Screen,1,imported_AP_instruction,1,1,,,,,,,1,,,,,,,,,,,,,,,,,,,,,,,,,,,,,,,,,,,,,,,,,,,,,,,,,,,,,,,,,,,,,,,,,yes,,,2022-01-28T21:25:50.000Z,363871,undefined,405244,undefined,1,2022-01-28T20:28:30.000Z,,,,not measured,,True
4,GenInstructMemCat,1,InstructionsMemCat,1,1,,,,,,,1,,,,,,,,,,,,,,,,,,,,,,,,,,,,,,,,,,,,,,,,,,,,,,,,,,,,,,,,,,,,,,,,,yes,,,2022-01-28T21:25:50.000Z,363871,undefined,405244,undefined,1,2022-01-28T20:28:30.000Z,,,,not measured,,True
2,Consent,1,Consent,1,1,,,,,,,1,,,,,,,,,,,,,,,,,,,,,,,,,,,,,,,,,,,,,,,,,,,,,,,,,,,,,,,,,,,,,,,,,yes,,,2022-01-28T21:25:50.000Z,363871,undefined,405244,undefined,1,2022-01-28T20:28:30.000Z,,,,not measured,,True
