Block_Nr,Block_Name,Task_Nr,Task_Name,Trial_Nr,Trial_Id,ab_pitch,age_range,answer,best_instru,choice,clip,Condition_Id,conditions,consent,correct_incorrect_m_2,correct_incorrect_m_3,correct_incorrect_mem_1,correct_incorrect_p_1,correct_incorrect_p_2,correct_incorrect_p_3,correct_incorrect_practice_m,correct_incorrect_practice_p,correctCount,decision,earworm,errorCount,exampleCount,familiarity,fileArray,filePick,Frequenc,genre,genre_3,genre_4,hour,imagery,imagery_2,Instr,isCorrect,listen_time,music_theory,name_instru,nrErrors,num_instru,participant_choice,participant_choice_2,participant_choice2,participant_spacePress,participant_spacePress2,played_notplayed,practice_catseg_scramble,relative_pitch,response,response_seg,response_seg2,response_Time2,responseTime,retestCount,scramble_cat_1,scramble_cat_3,scramble_cat_4,scramble_catseg_4,scramble_level,scramble_m_1,scramble_m_2,scramble_m_3,scramble_open_3,scramble_p_1,scramble_p_2,scramble_p_3,set1response,soundName,strategy,time_atClipStart1,toneSequence,always_fullscreen,completed,crowdsourcing_code,crowdsourcing_subj_id,end_time,exp_subject_id,group_name,rec_session_id,session_name,session_nr,start_time,subj_counter_global,subj_counter_per_group,subject_code,time_delay_offset,time_measure_std,unlocked
13,Post-Survey,1,Post-Survey,1,1,,,,,,,1,,,,,,,,,,,,,,,,1.0,,,,,,,,,,,,,,,,,,,,,,option_1,,,,,,,,,,,,,,,,,,,,,,,I paid more attention to the beginning of the song and the end to spot any differences ,,,,yes,,,2022-01-17T03:07:40.000Z,352045,group_3,390340,Memory3/Open2,1,2022-01-17T02:23:59.000Z,,,,not measured,,True
11,OpenEndedSeg_2,4,OpenEndedSeg_2,1,1,,,,,,,1,,,,,,,,,,,,,,,,,,,,,,,,,,,,,,,,,,,,,,,,,,,,,,,,,,,intact,,,,,,,,,,,,,,yes,,,2022-01-17T03:07:40.000Z,352045,group_3,390340,Memory3/Open2,1,2022-01-17T02:23:59.000Z,,,,not measured,,True
11,OpenEndedSeg_2,4,OpenEndedSeg_2,2,4,,,,,,,1,,,,,,,,,,,,,,,,,,,,,,,,,,,,,,,,,,,,,,,,,,,,,,,,,,,intact,,,,,,,,,,,,,,yes,,,2022-01-17T03:07:40.000Z,352045,group_3,390340,Memory3/Open2,1,2022-01-17T02:23:59.000Z,,,,not measured,,True
11,OpenEndedSeg_2,4,OpenEndedSeg_2,3,5,,,,,,,2,,,,,,,,,,,,,,,,,,,,,,,,,,,,,,,,,,,,,"""times=1642388047738;1642388093336---values=18029;63627""",,,,,,,,,,,,,,8B,,,,,,,,,,,,,,yes,,,2022-01-17T03:07:40.000Z,352045,group_3,390340,Memory3/Open2,1,2022-01-17T02:23:59.000Z,,,,not measured,,True
11,OpenEndedSeg_2,4,OpenEndedSeg_2,4,6,,,,,,,2,,,,,,,,,,,,,,,,,,,,,,,,,,,,,,,,,,,,,"""times=1642388096675;1642388173554;1642388194085;1642388216700;1642388227007---values=;9877;30408;53023;63330""",,,,,,,,,,,,,,8B,,,,,,,,,,,,,,yes,,,2022-01-17T03:07:40.000Z,352045,group_3,390340,Memory3/Open2,1,2022-01-17T02:23:59.000Z,,,,not measured,,True
11,OpenEndedSeg_2,4,OpenEndedSeg_2,5,10,,,,,,,3,,,,,,,,,,,,,,,,,,,,,,,,,,,,,,,,,,,,,"""times=1642388231089;1642388319779;1642388343349---values=;25870;49440""",,,,,,,,,,,,,,2B,,,,,,,,,,,,,,yes,,,2022-01-17T03:07:40.000Z,352045,group_3,390340,Memory3/Open2,1,2022-01-17T02:23:59.000Z,,,,not measured,,True
11,OpenEndedSeg_2,4,OpenEndedSeg_2,6,13,,,,,,,4,,,,,,,,,,,,,,,,,,,,,,,,,,,,,,,,,,,,,"""times=1642388357162;1642388431641;1642388445841---values=;13496;27696""",,,,,,,,,,,,,,1B,,,,,,,,,,,,,,yes,,,2022-01-17T03:07:40.000Z,352045,group_3,390340,Memory3/Open2,1,2022-01-17T02:23:59.000Z,,,,not measured,,True
11,OpenEndedSeg_2,4,OpenEndedSeg_2,7,11,,,,,,,3,,,,,,,,,,,,,,,,,,,,,,,,,,,,,,,,,,,,,"""times=1642388479529;1642388557056;1642388591899---values=;14247;49090""",,,,,,,,,,,,,,2B,,,,,,,,,,,,,,yes,,,2022-01-17T03:07:40.000Z,352045,group_3,390340,Memory3/Open2,1,2022-01-17T02:23:59.000Z,,,,not measured,,True
11,OpenEndedSeg_2,4,OpenEndedSeg_2,8,15,,,,,,,4,,,,,,,,,,,,,,,,,,,,,,,,,,,,,,,,,,,,,"""times=1642388606341;1642388688797;1642388711976---values=;21820;45000""",,,,,,,,,,,,,,1B,,,,,,,,,,,,,,yes,,,2022-01-17T03:07:40.000Z,352045,group_3,390340,Memory3/Open2,1,2022-01-17T02:23:59.000Z,,,,not measured,,True
11,OpenEndedSeg_2,3,Ready?,1,1,,,,,,,1,,,,,,,,,,,,,,,,,,,,,,,,,,,,,,,,,,,,,,,,,,,,,,,,,,,,,,,,,,,,,,,,,yes,,,2022-01-17T03:07:40.000Z,352045,group_3,390340,Memory3/Open2,1,2022-01-17T02:23:59.000Z,,,,not measured,,True
11,OpenEndedSeg_2,2,Practice_OpenEnded,1,1,,,,,,,1,,,,,,,,,,,,,,,,,,,,,,,,,,,,,,,,,,,,,,,,,,,,,,,,,,,,,,,,,,,,,,,,,yes,,,2022-01-17T03:07:40.000Z,352045,group_3,390340,Memory3/Open2,1,2022-01-17T02:23:59.000Z,,,,not measured,,True
11,OpenEndedSeg_2,1,Instructions_Open,1,1,,,,,,,1,,,,,,,,,,,,,,,,,,,,,,,,,,,,,,,,,,,,,,,,,,,,,,,,,,,,,,,,,,,,,,,,,yes,,,2022-01-17T03:07:40.000Z,352045,group_3,390340,Memory3/Open2,1,2022-01-17T02:23:59.000Z,,,,not measured,,True
9,Memory3,4,Memory_3,1,7,,,,,First,4_8B_memory_6.mp3,1,,,,correct_left,,,,,,,,,,,,,,,,,,,,,,,,,,,,,,,,,,,,,Correct,,,,2223.0,,,,,,,,,8B,,,,,,,,,,,yes,,,2022-01-17T03:07:40.000Z,352045,group_3,390340,Memory3/Open2,1,2022-01-17T02:23:59.000Z,,,,not measured,,True
9,Memory3,4,Memory_3,2,15,,,,,Second,3_8B_memory_10.mp3,2,,,,incorrect_left,,,,,,,,,,,,,,,,,,,,,,,,,,,,,,,,,,,,,Correct,,,,1708.0,,,,,,,,,8B,,,,,,,,,,,yes,,,2022-01-17T03:07:40.000Z,352045,group_3,390340,Memory3/Open2,1,2022-01-17T02:23:59.000Z,,,,not measured,,True
9,Memory3,4,Memory_3,3,52,,,,,First,3_1B_memory_7.mp3,6,,,,incorrect_left,,,,,,,,,,,,,,,,,,,,,,,,,,,,,,,,,,,,,Incorrect,,,,2050.0,,,,,,,,,1B,,,,,,,,,,,yes,,,2022-01-17T03:07:40.000Z,352045,group_3,390340,Memory3/Open2,1,2022-01-17T02:23:59.000Z,,,,not measured,,True
9,Memory3,4,Memory_3,4,50,,,,,First,4_1B_memory_9.mp3,5,,,,correct_left,,,,,,,,,,,,,,,,,,,,,,,,,,,,,,,,,,,,,Correct,,,,1538.0,,,,,,,,,1B,,,,,,,,,,,yes,,,2022-01-17T03:07:40.000Z,352045,group_3,390340,Memory3/Open2,1,2022-01-17T02:23:59.000Z,,,,not measured,,True
9,Memory3,4,Memory_3,5,57,,,,,First,4_1B_memory_6.mp3,6,,,,incorrect_left,,,,,,,,,,,,,,,,,,,,,,,,,,,,,,,,,,,,,Incorrect,,,,2209.0,,,,,,,,,1B,,,,,,,,,,,yes,,,2022-01-17T03:07:40.000Z,352045,group_3,390340,Memory3/Open2,1,2022-01-17T02:23:59.000Z,,,,not measured,,True
9,Memory3,4,Memory_3,6,25,,,,,First,3_2B_memory_10.mp3,3,,,,correct_left,,,,,,,,,,,,,,,,,,,,,,,,,,,,,,,,,,,,,Correct,,,,2672.0,,,,,,,,,2B,,,,,,,,,,,yes,,,2022-01-17T03:07:40.000Z,352045,group_3,390340,Memory3/Open2,1,2022-01-17T02:23:59.000Z,,,,not measured,,True
9,Memory3,4,Memory_3,7,45,,,,,Second,3_1B_memory_10.mp3,5,,,,correct_left,,,,,,,,,,,,,,,,,,,,,,,,,,,,,,,,,,,,,Incorrect,,,,2047.0,,,,,,,,,1B,,,,,,,,,,,yes,,,2022-01-17T03:07:40.000Z,352045,group_3,390340,Memory3/Open2,1,2022-01-17T02:23:59.000Z,,,,not measured,,True
9,Memory3,4,Memory_3,8,27,,,,,First,4_2B_memory_6.mp3,3,,,,correct_left,,,,,,,,,,,,,,,,,,,,,,,,,,,,,,,,,,,,,Correct,,,,1803.0,,,,,,,,,2B,,,,,,,,,,,yes,,,2022-01-17T03:07:40.000Z,352045,group_3,390340,Memory3/Open2,1,2022-01-17T02:23:59.000Z,,,,not measured,,True
9,Memory3,4,Memory_3,9,11,,,,,Second,3_8B_memory_6.mp3,2,,,,incorrect_left,,,,,,,,,,,,,,,,,,,,,,,,,,,,,,,,,,,,,Correct,,,,1208.0,,,,,,,,,8B,,,,,,,,,,,yes,,,2022-01-17T03:07:40.000Z,352045,group_3,390340,Memory3/Open2,1,2022-01-17T02:23:59.000Z,,,,not measured,,True
9,Memory3,4,Memory_3,10,29,,,,,First,4_2B_memory_8.mp3,3,,,,correct_left,,,,,,,,,,,,,,,,,,,,,,,,,,,,,,,,,,,,,Correct,,,,1191.0,,,,,,,,,2B,,,,,,,,,,,yes,,,2022-01-17T03:07:40.000Z,352045,group_3,390340,Memory3/Open2,1,2022-01-17T02:23:59.000Z,,,,not measured,,True
9,Memory3,4,Memory_3,11,9,,,,,First,4_8B_memory_8.mp3,1,,,,correct_left,,,,,,,,,,,,,,,,,,,,,,,,,,,,,,,,,,,,,Correct,,,,2388.0,,,,,,,,,8B,,,,,,,,,,,yes,,,2022-01-17T03:07:40.000Z,352045,group_3,390340,Memory3/Open2,1,2022-01-17T02:23:59.000Z,,,,not measured,,True
9,Memory3,4,Memory_3,12,56,,,,,First,4_1B_memory_5.mp3,6,,,,incorrect_left,,,,,,,,,,,,,,,,,,,,,,,,,,,,,,,,,,,,,Incorrect,,,,1674.0,,,,,,,,,1B,,,,,,,,,,,yes,,,2022-01-17T03:07:40.000Z,352045,group_3,390340,Memory3/Open2,1,2022-01-17T02:23:59.000Z,,,,not measured,,True
9,Memory3,4,Memory_3,13,10,,,,,Second,4_8B_memory_9.mp3,1,,,,correct_left,,,,,,,,,,,,,,,,,,,,,,,,,,,,,,,,,,,,,Incorrect,,,,1789.0,,,,,,,,,8B,,,,,,,,,,,yes,,,2022-01-17T03:07:40.000Z,352045,group_3,390340,Memory3/Open2,1,2022-01-17T02:23:59.000Z,,,,not measured,,True
9,Memory3,4,Memory_3,14,36,,,,,First,4_2B_memory_5.mp3,4,,,,incorrect_left,,,,,,,,,,,,,,,,,,,,,,,,,,,,,,,,,,,,,Incorrect,,,,1685.0,,,,,,,,,2B,,,,,,,,,,,yes,,,2022-01-17T03:07:40.000Z,352045,group_3,390340,Memory3/Open2,1,2022-01-17T02:23:59.000Z,,,,not measured,,True
9,Memory3,4,Memory_3,15,13,,,,,Second,3_8B_memory_8.mp3,2,,,,incorrect_left,,,,,,,,,,,,,,,,,,,,,,,,,,,,,,,,,,,,,Correct,,,,1353.0,,,,,,,,,8B,,,,,,,,,,,yes,,,2022-01-17T03:07:40.000Z,352045,group_3,390340,Memory3/Open2,1,2022-01-17T02:23:59.000Z,,,,not measured,,True
9,Memory3,4,Memory_3,16,43,,,,,First,3_1B_memory_8.mp3,5,,,,correct_left,,,,,,,,,,,,,,,,,,,,,,,,,,,,,,,,,,,,,Correct,,,,1649.0,,,,,,,,,1B,,,,,,,,,,,yes,,,2022-01-17T03:07:40.000Z,352045,group_3,390340,Memory3/Open2,1,2022-01-17T02:23:59.000Z,,,,not measured,,True
9,Memory3,4,Memory_3,17,51,,,,,Second,3_1B_memory_6.mp3,6,,,,incorrect_left,,,,,,,,,,,,,,,,,,,,,,,,,,,,,,,,,,,,,Correct,,,,2048.0,,,,,,,,,1B,,,,,,,,,,,yes,,,2022-01-17T03:07:40.000Z,352045,group_3,390340,Memory3/Open2,1,2022-01-17T02:23:59.000Z,,,,not measured,,True
9,Memory3,4,Memory_3,18,14,,,,,First,3_8B_memory_9.mp3,2,,,,incorrect_left,,,,,,,,,,,,,,,,,,,,,,,,,,,,,,,,,,,,,Incorrect,,,,1192.0,,,,,,,,,8B,,,,,,,,,,,yes,,,2022-01-17T03:07:40.000Z,352045,group_3,390340,Memory3/Open2,1,2022-01-17T02:23:59.000Z,,,,not measured,,True
9,Memory3,4,Memory_3,19,54,,,,,First,3_1B_memory_9.mp3,6,,,,incorrect_left,,,,,,,,,,,,,,,,,,,,,,,,,,,,,,,,,,,,,Incorrect,,,,1519.0,,,,,,,,,1B,,,,,,,,,,,yes,,,2022-01-17T03:07:40.000Z,352045,group_3,390340,Memory3/Open2,1,2022-01-17T02:23:59.000Z,,,,not measured,,True
9,Memory3,4,Memory_3,20,23,,,,,Second,3_2B_memory_8.mp3,3,,,,correct_left,,,,,,,,,,,,,,,,,,,,,,,,,,,,,,,,,,,,,Incorrect,,,,1311.0,,,,,,,,,2B,,,,,,,,,,,yes,,,2022-01-17T03:07:40.000Z,352045,group_3,390340,Memory3/Open2,1,2022-01-17T02:23:59.000Z,,,,not measured,,True
9,Memory3,4,Memory_3,21,59,,,,,Second,4_1B_memory_8.mp3,6,,,,incorrect_left,,,,,,,,,,,,,,,,,,,,,,,,,,,,,,,,,,,,,Correct,,,,1448.0,,,,,,,,,1B,,,,,,,,,,,yes,,,2022-01-17T03:07:40.000Z,352045,group_3,390340,Memory3/Open2,1,2022-01-17T02:23:59.000Z,,,,not measured,,True
9,Memory3,4,Memory_3,22,8,,,,,First,4_8B_memory_7.mp3,1,,,,correct_left,,,,,,,,,,,,,,,,,,,,,,,,,,,,,,,,,,,,,Correct,,,,1578.0,,,,,,,,,8B,,,,,,,,,,,yes,,,2022-01-17T03:07:40.000Z,352045,group_3,390340,Memory3/Open2,1,2022-01-17T02:23:59.000Z,,,,not measured,,True
9,Memory3,4,Memory_3,23,28,,,,,First,4_2B_memory_7.mp3,3,,,,correct_left,,,,,,,,,,,,,,,,,,,,,,,,,,,,,,,,,,,,,Correct,,,,1435.0,,,,,,,,,2B,,,,,,,,,,,yes,,,2022-01-17T03:07:40.000Z,352045,group_3,390340,Memory3/Open2,1,2022-01-17T02:23:59.000Z,,,,not measured,,True
9,Memory3,4,Memory_3,24,34,,,,,First,3_2B_memory_9.mp3,4,,,,incorrect_left,,,,,,,,,,,,,,,,,,,,,,,,,,,,,,,,,,,,,Incorrect,,,,1689.0,,,,,,,,,2B,,,,,,,,,,,yes,,,2022-01-17T03:07:40.000Z,352045,group_3,390340,Memory3/Open2,1,2022-01-17T02:23:59.000Z,,,,not measured,,True
9,Memory3,4,Memory_3,25,58,,,,,First,4_1B_memory_7.mp3,6,,,,incorrect_left,,,,,,,,,,,,,,,,,,,,,,,,,,,,,,,,,,,,,Incorrect,,,,1164.0,,,,,,,,,1B,,,,,,,,,,,yes,,,2022-01-17T03:07:40.000Z,352045,group_3,390340,Memory3/Open2,1,2022-01-17T02:23:59.000Z,,,,not measured,,True
9,Memory3,4,Memory_3,26,6,,,,,,4_8B_memory_5.mp3,1,,,,correct_left,,,,,,,,,,,,,,,,,,,,,,,,,,,,,,,,,,,,,,,,,,,,,,,,,,8B,,,,,,,,,,,yes,,,2022-01-17T03:07:40.000Z,352045,group_3,390340,Memory3/Open2,1,2022-01-17T02:23:59.000Z,,,,not measured,,True
9,Memory3,4,Memory_3,27,40,,,,,First,4_2B_memory_9.mp3,4,,,,incorrect_left,,,,,,,,,,,,,,,,,,,,,,,,,,,,,,,,,,,,,Incorrect,,,,1464.0,,,,,,,,,2B,,,,,,,,,,,yes,,,2022-01-17T03:07:40.000Z,352045,group_3,390340,Memory3/Open2,1,2022-01-17T02:23:59.000Z,,,,not measured,,True
9,Memory3,4,Memory_3,28,22,,,,,Second,3_2B_memory_7.mp3,3,,,,correct_left,,,,,,,,,,,,,,,,,,,,,,,,,,,,,,,,,,,,,Incorrect,,,,940.0,,,,,,,,,2B,,,,,,,,,,,yes,,,2022-01-17T03:07:40.000Z,352045,group_3,390340,Memory3/Open2,1,2022-01-17T02:23:59.000Z,,,,not measured,,True
9,Memory3,4,Memory_3,29,2,,,,,First,3_8B_memory_7.mp3,1,,,,correct_left,,,,,,,,,,,,,,,,,,,,,,,,,,,,,,,,,,,,,Correct,,,,1436.0,,,,,,,,,8B,,,,,,,,,,,yes,,,2022-01-17T03:07:40.000Z,352045,group_3,390340,Memory3/Open2,1,2022-01-17T02:23:59.000Z,,,,not measured,,True
9,Memory3,4,Memory_3,30,31,,,,,Second,3_2B_memory_6.mp3,4,,,,incorrect_left,,,,,,,,,,,,,,,,,,,,,,,,,,,,,,,,,,,,,Correct,,,,1202.0,,,,,,,,,2B,,,,,,,,,,,yes,,,2022-01-17T03:07:40.000Z,352045,group_3,390340,Memory3/Open2,1,2022-01-17T02:23:59.000Z,,,,not measured,,True
9,Memory3,3,Ready?,1,1,,,,,,,1,,,,,,,,,,,,,,,,,,,,,,,,,,,,,,,,,,,,,,,,,,,,,,,,,,,,,,,,,,,,,,,,,yes,,,2022-01-17T03:07:40.000Z,352045,group_3,390340,Memory3/Open2,1,2022-01-17T02:23:59.000Z,,,,not measured,,True
9,Memory3,2,Practice_Memory,1,3,,,,,First,,1,,,,,,,,,correct_incorrect,,,,,,,,,,,,,,,,,,,,,,,,,,,,,,,,Correct,,,,3750.0,,,,,,,,,,,,,,,,,,,,yes,,,2022-01-17T03:07:40.000Z,352045,group_3,390340,Memory3/Open2,1,2022-01-17T02:23:59.000Z,,,,not measured,,True
9,Memory3,2,Practice_Memory,2,4,,,,,Second,,2,,,,,,,,,incorrect_correc,,,,,,,,,,,,,,,,,,,,,,,,,,,,,,,,Correct,,,,2989.0,,,,,,,,,,,,,,,,,,,,yes,,,2022-01-17T03:07:40.000Z,352045,group_3,390340,Memory3/Open2,1,2022-01-17T02:23:59.000Z,,,,not measured,,True
9,Memory3,2,Practice_Memory,3,5,,,,,Second,,2,,,,,,,,,incorrect_correc,,,,,,,,,,,,,,,,,,,,,,,,,,,,,,,,Correct,,,,1514.0,,,,,,,,,,,,,,,,,,,,yes,,,2022-01-17T03:07:40.000Z,352045,group_3,390340,Memory3/Open2,1,2022-01-17T02:23:59.000Z,,,,not measured,,True
9,Memory3,1,Instructions_Memory,1,1,,,,,,,1,,,,,,,,,,,,,,,,,,,,,,,,,,,,,,,,,,,,,,,,,,,,,,,,,,,,,,,,,,,,,,,,,yes,,,2022-01-17T03:07:40.000Z,352045,group_3,390340,Memory3/Open2,1,2022-01-17T02:23:59.000Z,,,,not measured,,True
7,AP_Screen,3,imported_AP_eval,1,1,,,,,,,1,,,,,,,,,,,,,,,,,,,,,,,,,,,,,,,0.0,,,,,,,,,,,,,,,,,,,,,,,,,,,,,,,,,,yes,,,2022-01-17T03:07:40.000Z,352045,group_3,390340,Memory3/Open2,1,2022-01-17T02:23:59.000Z,,,,not measured,,True
7,AP_Screen,2,imported_AP_headphone test,1,1,,,,,,,1,,,,,,,,,,,,three,,,,,,,,,,,,,,,1.0,,,,0.0,,,,,,,,,,,,,,,,,,,,,,,,,,,,,,,,I_O_S,,yes,,,2022-01-17T03:07:40.000Z,352045,group_3,390340,Memory3/Open2,1,2022-01-17T02:23:59.000Z,,,,not measured,,True
7,AP_Screen,2,imported_AP_headphone test,2,6,,,,,,,6,,,,,,,,,,,,three,,,,,,,,,,,,,,,1.0,,,,0.0,,,,,,,,,,,,,,,,,,,,,,,,,,,,,,,,O_I_S,,yes,,,2022-01-17T03:07:40.000Z,352045,group_3,390340,Memory3/Open2,1,2022-01-17T02:23:59.000Z,,,,not measured,,True
7,AP_Screen,2,imported_AP_headphone test,3,5,,,,,,,5,,,,,,,,,,,,two,,,,,,,,,,,,,,,1.0,,,,0.0,,,,,,,,,,,,,,,,,,,,,,,,,,,,,,,,O_S_I,,yes,,,2022-01-17T03:07:40.000Z,352045,group_3,390340,Memory3/Open2,1,2022-01-17T02:23:59.000Z,,,,not measured,,True
7,AP_Screen,2,imported_AP_headphone test,4,2,,,,,,,2,,,,,,,,,,,,two,,,,,,,,,,,,,,,1.0,,,,0.0,,,,,,,,,,,,,,,,,,,,,,,,,,,,,,,,I_S_O,,yes,,,2022-01-17T03:07:40.000Z,352045,group_3,390340,Memory3/Open2,1,2022-01-17T02:23:59.000Z,,,,not measured,,True
7,AP_Screen,2,imported_AP_headphone test,5,4,,,,,,,4,,,,,,,,,,,,one,,,,,,,,,,,,,,,1.0,,,,0.0,,,,,,,,,,,,,,,,,,,,,,,,,,,,,,,,S_I_O,,yes,,,2022-01-17T03:07:40.000Z,352045,group_3,390340,Memory3/Open2,1,2022-01-17T02:23:59.000Z,,,,not measured,,True
7,AP_Screen,2,imported_AP_headphone test,6,3,,,,,,,3,,,,,,,,,,,,one,,,,,,,,,,,,,,,1.0,,,,0.0,,,,,,,,,,,,,,,,,,,,,,,,,,,,,,,,S_O_I,,yes,,,2022-01-17T03:07:40.000Z,352045,group_3,390340,Memory3/Open2,1,2022-01-17T02:23:59.000Z,,,,not measured,,True
7,AP_Screen,1,imported_AP_instruction,1,1,,,,,,,1,,,,,,,,,,,,,,,,,,,,,,,,,,,,,,,,,,,,,,,,,,,,,,,,,,,,,,,,,,,,,,,,,yes,,,2022-01-17T03:07:40.000Z,352045,group_3,390340,Memory3/Open2,1,2022-01-17T02:23:59.000Z,,,,not measured,,True
6,HP_Screen,3,imported_HP Evaluation,1,1,,,,,,,1,,,,,,,,,,,,,,0.0,,,,,,,,,,,,,,,,,,,,,,,,,,,,,,,,,,,,,,,,,,,,,,,,,,,yes,,,2022-01-17T03:07:40.000Z,352045,group_3,390340,Memory3/Open2,1,2022-01-17T02:23:59.000Z,,,,not measured,,True
6,HP_Screen,2,imported_HP Trials,1,3,,,,,,,1,,,,,,,,,,,,,,0.0,,,"""times=;;;;;;;;;;;;;;;;;---values=;;;;;;;;;;;;;;;;;""",hp2.2.flac,,,,,,,,,,,,,,,,,,,,,,,choice 2,,,,,,,,,,,,,,,,,,,hp2.2.flac,,,,,yes,,,2022-01-17T03:07:40.000Z,352045,group_3,390340,Memory3/Open2,1,2022-01-17T02:23:59.000Z,,,,not measured,,True
6,HP_Screen,2,imported_HP Trials,2,1,,,,,,,1,,,,,,,,,,,,,,0.0,,,"""times=;;;;;;;;;;;;;;;;;---values=;;;;;;;;;;;;;;;;;""",hp4.3.flac,,,,,,,,,,,,,,,,,,,,,,,choice 3,,,,,,,,,,,,,,,,,,,hp4.3.flac,,,,,yes,,,2022-01-17T03:07:40.000Z,352045,group_3,390340,Memory3/Open2,1,2022-01-17T02:23:59.000Z,,,,not measured,,True
6,HP_Screen,2,imported_HP Trials,3,4,,,,,,,1,,,,,,,,,,,,,,0.0,,,"""times=;;;;;;;;;;;;;;;;;---values=;;;;;;;;;;;;;;;;;""",hp4.1.flac,,,,,,,,,,,,,,,,,,,,,,,choice 1,,,,,,,,,,,,,,,,,,,hp4.1.flac,,,,,yes,,,2022-01-17T03:07:40.000Z,352045,group_3,390340,Memory3/Open2,1,2022-01-17T02:23:59.000Z,,,,not measured,,True
6,HP_Screen,2,imported_HP Trials,4,5,,,,,,,1,,,,,,,,,,,,,,0.0,,,"""times=;;;;;;;;;;;;;;;;;---values=;;;;;;;;;;;;;;;;;""",hp3.2.flac,,,,,,,,,,,,,,,,,,,,,,,choice 2,,,,,,,,,,,,,,,,,,,hp3.2.flac,,,,,yes,,,2022-01-17T03:07:40.000Z,352045,group_3,390340,Memory3/Open2,1,2022-01-17T02:23:59.000Z,,,,not measured,,True
6,HP_Screen,2,imported_HP Trials,5,6,,,,,,,1,,,,,,,,,,,,,,0.0,,,"""times=;;;;;;;;;;;;;;;;;---values=;;;;;;;;;;;;;;;;;""",hp1.2.flac,,,,,,,,,,,,,,,,,,,,,,,choice 2,,,,,,,,,,,,,,,,,,,hp1.2.flac,,,,,yes,,,2022-01-17T03:07:40.000Z,352045,group_3,390340,Memory3/Open2,1,2022-01-17T02:23:59.000Z,,,,not measured,,True
6,HP_Screen,2,imported_HP Trials,6,2,,,,,,,1,,,,,,,,,,,,,,0.0,,,"""times=;;;;;;;;;;;;;;;;;---values=;;;;;;;;;;;;;;;;;""",hp1.3.flac,,,,,,,,,,,,,,,,,,,,,,,choice 3,,,,,,,,,,,,,,,,,,,hp1.3.flac,,,,,yes,,,2022-01-17T03:07:40.000Z,352045,group_3,390340,Memory3/Open2,1,2022-01-17T02:23:59.000Z,,,,not measured,,True
6,HP_Screen,1,imported_HP Instructions,1,1,,,,,,,1,,,,,,,,,,,,,,,2.0,,,,,,,,,,,,,,,,,,,,,,,,,,,,,,,,,,,,,,,,,,,,,,,,,,yes,,,2022-01-17T03:07:40.000Z,352045,group_3,390340,Memory3/Open2,1,2022-01-17T02:23:59.000Z,,,,not measured,,True
4,GenInstructMemOpen,1,InstructionsMemOpen,1,1,,,,,,,1,,,,,,,,,,,,,,,,,,,,,,,,,,,,,,,,,,,,,,,,,,,,,,,,,,,,,,,,,,,,,,,,,yes,,,2022-01-17T03:07:40.000Z,352045,group_3,390340,Memory3/Open2,1,2022-01-17T02:23:59.000Z,,,,not measured,,True
2,Consent,1,Consent,1,1,,,,,,,1,,,,,,,,,,,,,,,,,,,,,,,,,,,,,,,,,,,,,,,,,,,,,,,,,,,,,,,,,,,,,,,,,yes,,,2022-01-17T03:07:40.000Z,352045,group_3,390340,Memory3/Open2,1,2022-01-17T02:23:59.000Z,,,,not measured,,True
