Block_Nr,Block_Name,Task_Nr,Task_Name,Trial_Nr,Trial_Id,ab_pitch,age_range,answer,best_instru,choice,clip,Condition_Id,conditions,consent,correct_incorrect_m_2,correct_incorrect_m_3,correct_incorrect_mem_1,correct_incorrect_p_1,correct_incorrect_p_2,correct_incorrect_p_3,correct_incorrect_practice_m,correct_incorrect_practice_p,correctCount,decision,earworm,errorCount,exampleCount,familiarity,fileArray,filePick,Frequenc,genre,genre_3,genre_4,hour,imagery,imagery_2,Instr,isCorrect,listen_time,music_theory,name_instru,nrErrors,num_instru,participant_choice,participant_choice_2,participant_choice2,participant_spacePress,participant_spacePress2,played_notplayed,practice_catseg_scramble,relative_pitch,response,response_seg,response_seg2,response_Time2,responseTime,retestCount,scramble_cat_1,scramble_cat_3,scramble_cat_4,scramble_catseg_4,scramble_level,scramble_m_1,scramble_m_2,scramble_m_3,scramble_open_3,scramble_p_1,scramble_p_2,scramble_p_3,set1response,soundName,strategy,time_atClipStart1,toneSequence,always_fullscreen,completed,crowdsourcing_code,crowdsourcing_subj_id,end_time,exp_subject_id,group_name,rec_session_id,session_name,session_nr,start_time,subj_counter_global,subj_counter_per_group,subject_code,time_delay_offset,time_measure_std,unlocked
13,Post-Survey,1,Post-Survey,1,1,,,,,,,1,,,,,,,,,,,,,,,,2.0,,,,,,,,,,,,,,,,,,,,,,option_1,,,,,,,,,,,,,,,,,,,,,,,Listening carefully to the changes whilst counting measures.,,,,yes,,,2022-01-19T02:48:40.000Z,355513,group_12,394101,Prediction3/Cat.2,1,2022-01-19T01:51:32.000Z,,,,not measured,,True
11,CategorizationSeg_2,4,CategorizationSeg_2,1,13,,,,,,,4,,,,,,,,,,,,,,,,,,,,,,,,,,,,,,,,,Every 16 seconds (every 8 measures),Every 4 seconds (every 2 measures),,,,,,,,Incorrect,Incorrect,1926.0,2930.0,,1B,,,,,,,,,,,,,,,,,,yes,,,2022-01-19T02:48:40.000Z,355513,group_12,394101,Prediction3/Cat.2,1,2022-01-19T01:51:32.000Z,,,,not measured,,True
11,CategorizationSeg_2,4,CategorizationSeg_2,2,15,,,,,,,4,,,,,,,,,,,,,,,,,,,,,,,,,,,,,,,,,Every 4 seconds (every 2 measures),Every 4 seconds (every 2 measures),,,,,,,,Incorrect,Incorrect,1907.0,1379.0,,1B,,,,,,,,,,,,,,,,,,yes,,,2022-01-19T02:48:40.000Z,355513,group_12,394101,Prediction3/Cat.2,1,2022-01-19T01:51:32.000Z,,,,not measured,,True
11,CategorizationSeg_2,4,CategorizationSeg_2,3,10,,,,,,,3,,,,,,,,,,,,,,,,,,,,,,,,,,,,,,,,,Every 4 seconds (every 2 measures),Every 2 seconds (every 1 measure),,,,,,,,Correct,Incorrect,1345.0,1448.0,,2B,,,,,,,,,,,,,,,,,,yes,,,2022-01-19T02:48:40.000Z,355513,group_12,394101,Prediction3/Cat.2,1,2022-01-19T01:51:32.000Z,,,,not measured,,True
11,CategorizationSeg_2,4,CategorizationSeg_2,4,2,,,,,,,1,,,,,,,,,,,,,,,,,,,,,,,,,,,,,,,,,Every 4 seconds (every 2 measures),Every 16 seconds (every 8 measures),,,,,,,,Incorrect,Incorrect,3020.0,1552.0,,intact,,,,,,,,,,,,,,,,,,yes,,,2022-01-19T02:48:40.000Z,355513,group_12,394101,Prediction3/Cat.2,1,2022-01-19T01:51:32.000Z,,,,not measured,,True
11,CategorizationSeg_2,4,CategorizationSeg_2,5,7,,,,,,,2,,,,,,,,,,,,,,,,,,,,,,,,,,,,,,,,,Every 16 seconds (every 8 measures),Every 16 seconds (every 8 measures),,,,,,,,Correct,Correct,1314.0,1479.0,,8B,,,,,,,,,,,,,,,,,,yes,,,2022-01-19T02:48:40.000Z,355513,group_12,394101,Prediction3/Cat.2,1,2022-01-19T01:51:32.000Z,,,,not measured,,True
11,CategorizationSeg_2,4,CategorizationSeg_2,6,9,,,,,,,3,,,,,,,,,,,,,,,,,,,,,,,,,,,,,,,,,Every 4 seconds (every 2 measures),Every 4 seconds (every 2 measures),,,,,,,,Correct,Correct,2006.0,1780.0,,2B,,,,,,,,,,,,,,,,,,yes,,,2022-01-19T02:48:40.000Z,355513,group_12,394101,Prediction3/Cat.2,1,2022-01-19T01:51:32.000Z,,,,not measured,,True
11,CategorizationSeg_2,4,CategorizationSeg_2,7,5,,,,,,,2,,,,,,,,,,,,,,,,,,,,,,,,,,,,,,,,,Every 2 seconds (every 1 measure),Every 2 seconds (every 1 measure),,,,,,,,Incorrect,Incorrect,2584.0,2410.0,,8B,,,,,,,,,,,,,,,,,,yes,,,2022-01-19T02:48:40.000Z,355513,group_12,394101,Prediction3/Cat.2,1,2022-01-19T01:51:32.000Z,,,,not measured,,True
11,CategorizationSeg_2,4,CategorizationSeg_2,8,4,,,,,,,1,,,,,,,,,,,,,,,,,,,,,,,,,,,,,,,,,Every 2 seconds (every 1 measure),Every 2 seconds (every 1 measure),,,,,,,,Incorrect,Incorrect,1476.0,2179.0,,intact,,,,,,,,,,,,,,,,,,yes,,,2022-01-19T02:48:40.000Z,355513,group_12,394101,Prediction3/Cat.2,1,2022-01-19T01:51:32.000Z,,,,not measured,,True
11,CategorizationSeg_2,3,Ready?,1,1,,,,,,,1,,,,,,,,,,,,,,,,,,,,,,,,,,,,,,,,,,,,,,,,,,,,,,,,,,,,,,,,,,,,,,,,,yes,,,2022-01-19T02:48:40.000Z,355513,group_12,394101,Prediction3/Cat.2,1,2022-01-19T01:51:32.000Z,,,,not measured,,True
11,CategorizationSeg_2,2,Practice_Categorization,1,3,,,,,,,3,,,,,,,,,,,,,,,,,,,,,,,,,,,,,,,,,Every 4 seconds (every 2 measures),Every 4 seconds (every 2 measures),,,,,2B,,,Incorrect,Incorrect,4971.0,11516.0,,,,,,,,,,,,,,,,,,,,yes,,,2022-01-19T02:48:40.000Z,355513,group_12,394101,Prediction3/Cat.2,1,2022-01-19T01:51:32.000Z,,,,not measured,,True
11,CategorizationSeg_2,1,Instructions for Categorization Seg.,1,1,,,,,,,1,,,,,,,,,,,,,,,,,,,,,,,,,,,,,,,,,,,,,,,,,,,,,,,,,,,,,,,,,,,,,,,,,yes,,,2022-01-19T02:48:40.000Z,355513,group_12,394101,Prediction3/Cat.2,1,2022-01-19T01:51:32.000Z,,,,not measured,,True
9,Prediction3,4,Prediction_3,1,3,,,,,First,3_8B_prediction_8.mp3,1,,,,,,,,correct_left,,,,,,,,,,,,,,,,,,,,,,,,,,,,,,,,,Correct,,,,1103.0,,,,,,,,,,,,,8B,,,,,,,yes,,,2022-01-19T02:48:40.000Z,355513,group_12,394101,Prediction3/Cat.2,1,2022-01-19T01:51:32.000Z,,,,not measured,,True
9,Prediction3,4,Prediction_3,2,38,,,,,Second,4_2B_prediction_7.mp3,4,,,,,,,,incorrect_left,,,,,,,,,,,,,,,,,,,,,,,,,,,,,,,,,Correct,,,,1464.0,,,,,,,,,,,,,2B,,,,,,,yes,,,2022-01-19T02:48:40.000Z,355513,group_12,394101,Prediction3/Cat.2,1,2022-01-19T01:51:32.000Z,,,,not measured,,True
9,Prediction3,4,Prediction_3,3,46,,,,,Second,4_1B_prediction_5.mp3,5,,,,,,,,correct_left,,,,,,,,,,,,,,,,,,,,,,,,,,,,,,,,,Incorrect,,,,1088.0,,,,,,,,,,,,,1B,,,,,,,yes,,,2022-01-19T02:48:40.000Z,355513,group_12,394101,Prediction3/Cat.2,1,2022-01-19T01:51:32.000Z,,,,not measured,,True
9,Prediction3,4,Prediction_3,4,50,,,,,First,4_8B_prediction_9.mp3,5,,,,,,,,correct_left,,,,,,,,,,,,,,,,,,,,,,,,,,,,,,,,,Correct,,,,1026.0,,,,,,,,,,,,,1B,,,,,,,yes,,,2022-01-19T02:48:40.000Z,355513,group_12,394101,Prediction3/Cat.2,1,2022-01-19T01:51:32.000Z,,,,not measured,,True
9,Prediction3,4,Prediction_3,5,10,,,,,Second,4_8B_prediction_9.mp3,1,,,,,,,,correct_left,,,,,,,,,,,,,,,,,,,,,,,,,,,,,,,,,Incorrect,,,,979.0,,,,,,,,,,,,,8B,,,,,,,yes,,,2022-01-19T02:48:40.000Z,355513,group_12,394101,Prediction3/Cat.2,1,2022-01-19T01:51:32.000Z,,,,not measured,,True
9,Prediction3,4,Prediction_3,6,4,,,,,Second,3_8B_prediction_9.mp3,1,,,,,,,,correct_left,,,,,,,,,,,,,,,,,,,,,,,,,,,,,,,,,Incorrect,,,,718.0,,,,,,,,,,,,,8B,,,,,,,yes,,,2022-01-19T02:48:40.000Z,355513,group_12,394101,Prediction3/Cat.2,1,2022-01-19T01:51:32.000Z,,,,not measured,,True
9,Prediction3,4,Prediction_3,7,24,,,,,Second,3_2B_prediction_9.mp3,3,,,,,,,,correct_left,,,,,,,,,,,,,,,,,,,,,,,,,,,,,,,,,Incorrect,,,,854.0,,,,,,,,,,,,,2B,,,,,,,yes,,,2022-01-19T02:48:40.000Z,355513,group_12,394101,Prediction3/Cat.2,1,2022-01-19T01:51:32.000Z,,,,not measured,,True
9,Prediction3,4,Prediction_3,8,21,,,,,Second,3_2B_prediction_6.mp3,3,,,,,,,,correct_left,,,,,,,,,,,,,,,,,,,,,,,,,,,,,,,,,Incorrect,,,,1411.0,,,,,,,,,,,,,2B,,,,,,,yes,,,2022-01-19T02:48:40.000Z,355513,group_12,394101,Prediction3/Cat.2,1,2022-01-19T01:51:32.000Z,,,,not measured,,True
9,Prediction3,4,Prediction_3,9,51,,,,,Second,3_1B_prediction_6.mp3,6,,,,,,,,incorrect_left,,,,,,,,,,,,,,,,,,,,,,,,,,,,,,,,,Correct,,,,948.0,,,,,,,,,,,,,1B,,,,,,,yes,,,2022-01-19T02:48:40.000Z,355513,group_12,394101,Prediction3/Cat.2,1,2022-01-19T01:51:32.000Z,,,,not measured,,True
9,Prediction3,4,Prediction_3,10,57,,,,,Second,4_1B_prediction_6.mp3,6,,,,,,,,incorrect_left,,,,,,,,,,,,,,,,,,,,,,,,,,,,,,,,,Correct,,,,1388.0,,,,,,,,,,,,,1B,,,,,,,yes,,,2022-01-19T02:48:40.000Z,355513,group_12,394101,Prediction3/Cat.2,1,2022-01-19T01:51:32.000Z,,,,not measured,,True
9,Prediction3,4,Prediction_3,11,44,,,,,First,3_1B_prediction_9.mp3,5,,,,,,,,correct_left,,,,,,,,,,,,,,,,,,,,,,,,,,,,,,,,,Correct,,,,1176.0,,,,,,,,,,,,,1B,,,,,,,yes,,,2022-01-19T02:48:40.000Z,355513,group_12,394101,Prediction3/Cat.2,1,2022-01-19T01:51:32.000Z,,,,not measured,,True
9,Prediction3,4,Prediction_3,12,19,,,,,Second,4_8B_prediction_8.mp3,2,,,,,,,,incorrect_left,,,,,,,,,,,,,,,,,,,,,,,,,,,,,,,,,Correct,,,,1267.0,,,,,,,,,,,,,8B,,,,,,,yes,,,2022-01-19T02:48:40.000Z,355513,group_12,394101,Prediction3/Cat.2,1,2022-01-19T01:51:32.000Z,,,,not measured,,True
9,Prediction3,4,Prediction_3,13,1,,,,,First,3_8B_prediction_6.mp3,1,,,,,,,,correct_left,,,,,,,,,,,,,,,,,,,,,,,,,,,,,,,,,Correct,,,,1006.0,,,,,,,,,,,,,8B,,,,,,,yes,,,2022-01-19T02:48:40.000Z,355513,group_12,394101,Prediction3/Cat.2,1,2022-01-19T01:51:32.000Z,,,,not measured,,True
9,Prediction3,4,Prediction_3,14,8,,,,,First,4_8B_prediction_7.mp3,1,,,,,,,,correct_left,,,,,,,,,,,,,,,,,,,,,,,,,,,,,,,,,Correct,,,,1093.0,,,,,,,,,,,,,8B,,,,,,,yes,,,2022-01-19T02:48:40.000Z,355513,group_12,394101,Prediction3/Cat.2,1,2022-01-19T01:51:32.000Z,,,,not measured,,True
9,Prediction3,4,Prediction_3,15,16,,,,,Second,4_8B_prediction_5.mp3,2,,,,,,,,incorrect_left,,,,,,,,,,,,,,,,,,,,,,,,,,,,,,,,,Correct,,,,1025.0,,,,,,,,,,,,,8B,,,,,,,yes,,,2022-01-19T02:48:40.000Z,355513,group_12,394101,Prediction3/Cat.2,1,2022-01-19T01:51:32.000Z,,,,not measured,,True
9,Prediction3,4,Prediction_3,16,37,,,,,Second,4_2B_prediction_6.mp3,4,,,,,,,,incorrect_left,,,,,,,,,,,,,,,,,,,,,,,,,,,,,,,,,Correct,,,,906.0,,,,,,,,,,,,,2B,,,,,,,yes,,,2022-01-19T02:48:40.000Z,355513,group_12,394101,Prediction3/Cat.2,1,2022-01-19T01:51:32.000Z,,,,not measured,,True
9,Prediction3,4,Prediction_3,17,53,,,,,Second,3_1B_prediction_8.mp3,6,,,,,,,,incorrect_left,,,,,,,,,,,,,,,,,,,,,,,,,,,,,,,,,Correct,,,,1483.0,,,,,,,,,,,,,1B,,,,,,,yes,,,2022-01-19T02:48:40.000Z,355513,group_12,394101,Prediction3/Cat.2,1,2022-01-19T01:51:32.000Z,,,,not measured,,True
9,Prediction3,4,Prediction_3,18,5,,,,,First,3_8B_prediction_2.mp3,1,,,,,,,,correct_left,,,,,,,,,,,,,,,,,,,,,,,,,,,,,,,,,Correct,,,,1480.0,,,,,,,,,,,,,8B,,,,,,,yes,,,2022-01-19T02:48:40.000Z,355513,group_12,394101,Prediction3/Cat.2,1,2022-01-19T01:51:32.000Z,,,,not measured,,True
9,Prediction3,4,Prediction_3,19,32,,,,,Second,3_2B_prediction_7.mp3,4,,,,,,,,incorrect_left,,,,,,,,,,,,,,,,,,,,,,,,,,,,,,,,,Correct,,,,1286.0,,,,,,,,,,,,,2B,,,,,,,yes,,,2022-01-19T02:48:40.000Z,355513,group_12,394101,Prediction3/Cat.2,1,2022-01-19T01:51:32.000Z,,,,not measured,,True
9,Prediction3,4,Prediction_3,20,25,,,,,First,3_2B_prediction_10.mp3,3,,,,,,,,correct_left,,,,,,,,,,,,,,,,,,,,,,,,,,,,,,,,,Correct,,,,809.0,,,,,,,,,,,,,2B,,,,,,,yes,,,2022-01-19T02:48:40.000Z,355513,group_12,394101,Prediction3/Cat.2,1,2022-01-19T01:51:32.000Z,,,,not measured,,True
9,Prediction3,4,Prediction_3,21,12,,,,,First,3_8B_prediction_7.mp3,2,,,,,,,,incorrect_left,,,,,,,,,,,,,,,,,,,,,,,,,,,,,,,,,Incorrect,,,,866.0,,,,,,,,,,,,,8B,,,,,,,yes,,,2022-01-19T02:48:40.000Z,355513,group_12,394101,Prediction3/Cat.2,1,2022-01-19T01:51:32.000Z,,,,not measured,,True
9,Prediction3,4,Prediction_3,22,58,,,,,First,4_1B_prediction_7.mp3,6,,,,,,,,incorrect_left,,,,,,,,,,,,,,,,,,,,,,,,,,,,,,,,,Incorrect,,,,1217.0,,,,,,,,,,,,,1B,,,,,,,yes,,,2022-01-19T02:48:40.000Z,355513,group_12,394101,Prediction3/Cat.2,1,2022-01-19T01:51:32.000Z,,,,not measured,,True
9,Prediction3,4,Prediction_3,23,52,,,,,Second,3_1B_prediction_7.mp3,6,,,,,,,,incorrect_left,,,,,,,,,,,,,,,,,,,,,,,,,,,,,,,,,Correct,,,,1128.0,,,,,,,,,,,,,1B,,,,,,,yes,,,2022-01-19T02:48:40.000Z,355513,group_12,394101,Prediction3/Cat.2,1,2022-01-19T01:51:32.000Z,,,,not measured,,True
9,Prediction3,4,Prediction_3,24,33,,,,,First,3_2B_prediction_8.mp3,4,,,,,,,,incorrect_left,,,,,,,,,,,,,,,,,,,,,,,,,,,,,,,,,Incorrect,,,,1056.0,,,,,,,,,,,,,2B,,,,,,,yes,,,2022-01-19T02:48:40.000Z,355513,group_12,394101,Prediction3/Cat.2,1,2022-01-19T01:51:32.000Z,,,,not measured,,True
9,Prediction3,4,Prediction_3,25,30,,,,,Second,4_2B_prediction_9.mp3,3,,,,,,,,correct_left,,,,,,,,,,,,,,,,,,,,,,,,,,,,,,,,,Incorrect,,,,1155.0,,,,,,,,,,,,,2B,,,,,,,yes,,,2022-01-19T02:48:40.000Z,355513,group_12,394101,Prediction3/Cat.2,1,2022-01-19T01:51:32.000Z,,,,not measured,,True
9,Prediction3,4,Prediction_3,26,26,,,,,First,4_2B_prediction_5.mp3,3,,,,,,,,correct_left,,,,,,,,,,,,,,,,,,,,,,,,,,,,,,,,,Correct,,,,1336.0,,,,,,,,,,,,,2B,,,,,,,yes,,,2022-01-19T02:48:40.000Z,355513,group_12,394101,Prediction3/Cat.2,1,2022-01-19T01:51:32.000Z,,,,not measured,,True
9,Prediction3,4,Prediction_3,27,17,,,,,Second,4_8B_prediction_6.mp3,2,,,,,,,,incorrect_left,,,,,,,,,,,,,,,,,,,,,,,,,,,,,,,,,Correct,,,,1174.0,,,,,,,,,,,,,8B,,,,,,,yes,,,2022-01-19T02:48:40.000Z,355513,group_12,394101,Prediction3/Cat.2,1,2022-01-19T01:51:32.000Z,,,,not measured,,True
9,Prediction3,4,Prediction_3,28,59,,,,,Second,4_1B_prediction_8.mp3,6,,,,,,,,incorrect_left,,,,,,,,,,,,,,,,,,,,,,,,,,,,,,,,,Correct,,,,1131.0,,,,,,,,,,,,,1B,,,,,,,yes,,,2022-01-19T02:48:40.000Z,355513,group_12,394101,Prediction3/Cat.2,1,2022-01-19T01:51:32.000Z,,,,not measured,,True
9,Prediction3,4,Prediction_3,29,39,,,,,First,4_2B_prediction_8.mp3,4,,,,,,,,incorrect_left,,,,,,,,,,,,,,,,,,,,,,,,,,,,,,,,,Incorrect,,,,1430.0,,,,,,,,,,,,,2B,,,,,,,yes,,,2022-01-19T02:48:40.000Z,355513,group_12,394101,Prediction3/Cat.2,1,2022-01-19T01:51:32.000Z,,,,not measured,,True
9,Prediction3,4,Prediction_3,30,45,,,,,Second,3_1B_prediction_10.mp3,5,,,,,,,,correct_left,,,,,,,,,,,,,,,,,,,,,,,,,,,,,,,,,Incorrect,,,,1440.0,,,,,,,,,,,,,1B,,,,,,,yes,,,2022-01-19T02:48:40.000Z,355513,group_12,394101,Prediction3/Cat.2,1,2022-01-19T01:51:32.000Z,,,,not measured,,True
9,Prediction3,3,Ready?,1,1,,,,,,,1,,,,,,,,,,,,,,,,,,,,,,,,,,,,,,,,,,,,,,,,,,,,,,,,,,,,,,,,,,,,,,,,,yes,,,2022-01-19T02:48:40.000Z,355513,group_12,394101,Prediction3/Cat.2,1,2022-01-19T01:51:32.000Z,,,,not measured,,True
9,Prediction3,2,Practice_Prediction,1,5,,,,,Second,,2,,,,,,,,,,incorrect_correct,,,,,,,,,,,,,,,,,,,,,,,,,,,,,,,Correct,,,,1284.0,,,,,,,,,,,,,,,,,,,,yes,,,2022-01-19T02:48:40.000Z,355513,group_12,394101,Prediction3/Cat.2,1,2022-01-19T01:51:32.000Z,,,,not measured,,True
9,Prediction3,2,Practice_Prediction,2,4,,,,,First,,2,,,,,,,,,,incorrect_correct,,,,,,,,,,,,,,,,,,,,,,,,,,,,,,,Incorrect,,,,1895.0,,,,,,,,,,,,,,,,,,,,yes,,,2022-01-19T02:48:40.000Z,355513,group_12,394101,Prediction3/Cat.2,1,2022-01-19T01:51:32.000Z,,,,not measured,,True
9,Prediction3,2,Practice_Prediction,3,3,,,,,First,,1,,,,,,,,,,correct_incorrect,,,,,,,,,,,,,,,,,,,,,,,,,,,,,,,Correct,,,,1470.0,,,,,,,,,,,,,,,,,,,,yes,,,2022-01-19T02:48:40.000Z,355513,group_12,394101,Prediction3/Cat.2,1,2022-01-19T01:51:32.000Z,,,,not measured,,True
9,Prediction3,1,Instructions_Prediction,1,1,,,,,,,1,,,,,,,,,,,,,,,,,,,,,,,,,,,,,,,,,,,,,,,,,,,,,,,,,,,,,,,,,,,,,,,,,yes,,,2022-01-19T02:48:40.000Z,355513,group_12,394101,Prediction3/Cat.2,1,2022-01-19T01:51:32.000Z,,,,not measured,,True
7,AP_Screen,3,imported_AP_eval,1,1,,,,,,,1,,,,,,,,,,,,,,,,,,,,,,,,,,,,,,,0.0,,,,,,,,,,,,,,,,,,,,,,,,,,,,,,,,,,yes,,,2022-01-19T02:48:40.000Z,355513,group_12,394101,Prediction3/Cat.2,1,2022-01-19T01:51:32.000Z,,,,not measured,,True
7,AP_Screen,2,imported_AP_headphone test,1,4,,,,,,,4,,,,,,,,,,,,one,,,,,,,,,,,,,,,1.0,,,,0.0,,,,,,,,,,,,,,,,,,,,,,,,,,,,,,,,S_I_O,,yes,,,2022-01-19T02:48:40.000Z,355513,group_12,394101,Prediction3/Cat.2,1,2022-01-19T01:51:32.000Z,,,,not measured,,True
7,AP_Screen,2,imported_AP_headphone test,2,6,,,,,,,6,,,,,,,,,,,,three,,,,,,,,,,,,,,,1.0,,,,0.0,,,,,,,,,,,,,,,,,,,,,,,,,,,,,,,,O_I_S,,yes,,,2022-01-19T02:48:40.000Z,355513,group_12,394101,Prediction3/Cat.2,1,2022-01-19T01:51:32.000Z,,,,not measured,,True
7,AP_Screen,2,imported_AP_headphone test,3,3,,,,,,,3,,,,,,,,,,,,one,,,,,,,,,,,,,,,1.0,,,,0.0,,,,,,,,,,,,,,,,,,,,,,,,,,,,,,,,S_O_I,,yes,,,2022-01-19T02:48:40.000Z,355513,group_12,394101,Prediction3/Cat.2,1,2022-01-19T01:51:32.000Z,,,,not measured,,True
7,AP_Screen,2,imported_AP_headphone test,4,1,,,,,,,1,,,,,,,,,,,,three,,,,,,,,,,,,,,,1.0,,,,0.0,,,,,,,,,,,,,,,,,,,,,,,,,,,,,,,,I_O_S,,yes,,,2022-01-19T02:48:40.000Z,355513,group_12,394101,Prediction3/Cat.2,1,2022-01-19T01:51:32.000Z,,,,not measured,,True
7,AP_Screen,2,imported_AP_headphone test,5,2,,,,,,,2,,,,,,,,,,,,two,,,,,,,,,,,,,,,1.0,,,,0.0,,,,,,,,,,,,,,,,,,,,,,,,,,,,,,,,I_S_O,,yes,,,2022-01-19T02:48:40.000Z,355513,group_12,394101,Prediction3/Cat.2,1,2022-01-19T01:51:32.000Z,,,,not measured,,True
7,AP_Screen,2,imported_AP_headphone test,6,5,,,,,,,5,,,,,,,,,,,,two,,,,,,,,,,,,,,,1.0,,,,0.0,,,,,,,,,,,,,,,,,,,,,,,,,,,,,,,,O_S_I,,yes,,,2022-01-19T02:48:40.000Z,355513,group_12,394101,Prediction3/Cat.2,1,2022-01-19T01:51:32.000Z,,,,not measured,,True
7,AP_Screen,1,imported_AP_instruction,1,1,,,,,,,1,,,,,,,,,,,,,,,,,,,,,,,,,,,,,,,,,,,,,,,,,,,,,,,,,,,,,,,,,,,,,,,,,yes,,,2022-01-19T02:48:40.000Z,355513,group_12,394101,Prediction3/Cat.2,1,2022-01-19T01:51:32.000Z,,,,not measured,,True
6,HP_Screen,3,imported_HP Evaluation,1,1,,,,,,,1,,,,,,,,,,,,,,0.0,,,,,,,,,,,,,,,,,,,,,,,,,,,,,,,,,,,,,,,,,,,,,,,,,,,yes,,,2022-01-19T02:48:40.000Z,355513,group_12,394101,Prediction3/Cat.2,1,2022-01-19T01:51:32.000Z,,,,not measured,,True
6,HP_Screen,2,imported_HP Trials,1,1,,,,,,,1,,,,,,,,,,,,,,0.0,,,"""times=;;;;;;;;;;;;;;;;;---values=;;;;;;;;;;;;;;;;;""",hp6.1.flac,,,,,,,,,,,,,,,,,,,,,,,choice 1,,,,,,,,,,,,,,,,,,,hp6.1.flac,,,,,yes,,,2022-01-19T02:48:40.000Z,355513,group_12,394101,Prediction3/Cat.2,1,2022-01-19T01:51:32.000Z,,,,not measured,,True
6,HP_Screen,2,imported_HP Trials,2,5,,,,,,,1,,,,,,,,,,,,,,0.0,,,"""times=;;;;;;;;;;;;;;;;;---values=;;;;;;;;;;;;;;;;;""",hp1.2.flac,,,,,,,,,,,,,,,,,,,,,,,choice 2,,,,,,,,,,,,,,,,,,,hp1.2.flac,,,,,yes,,,2022-01-19T02:48:40.000Z,355513,group_12,394101,Prediction3/Cat.2,1,2022-01-19T01:51:32.000Z,,,,not measured,,True
6,HP_Screen,2,imported_HP Trials,3,4,,,,,,,1,,,,,,,,,,,,,,0.0,,,"""times=;;;;;;;;;;;;;;;;;---values=;;;;;;;;;;;;;;;;;""",hp4.1.flac,,,,,,,,,,,,,,,,,,,,,,,choice 1,,,,,,,,,,,,,,,,,,,hp4.1.flac,,,,,yes,,,2022-01-19T02:48:40.000Z,355513,group_12,394101,Prediction3/Cat.2,1,2022-01-19T01:51:32.000Z,,,,not measured,,True
6,HP_Screen,2,imported_HP Trials,4,2,,,,,,,1,,,,,,,,,,,,,,0.0,,,"""times=;;;;;;;;;;;;;;;;;---values=;;;;;;;;;;;;;;;;;""",hp6.2.flac,,,,,,,,,,,,,,,,,,,,,,,choice 2,,,,,,,,,,,,,,,,,,,hp6.2.flac,,,,,yes,,,2022-01-19T02:48:40.000Z,355513,group_12,394101,Prediction3/Cat.2,1,2022-01-19T01:51:32.000Z,,,,not measured,,True
6,HP_Screen,2,imported_HP Trials,5,6,,,,,,,1,,,,,,,,,,,,,,0.0,,,"""times=;;;;;;;;;;;;;;;;;---values=;;;;;;;;;;;;;;;;;""",hp6.3.flac,,,,,,,,,,,,,,,,,,,,,,,choice 3,,,,,,,,,,,,,,,,,,,hp6.3.flac,,,,,yes,,,2022-01-19T02:48:40.000Z,355513,group_12,394101,Prediction3/Cat.2,1,2022-01-19T01:51:32.000Z,,,,not measured,,True
6,HP_Screen,2,imported_HP Trials,6,3,,,,,,,1,,,,,,,,,,,,,,0.0,,,"""times=;;;;;;;;;;;;;;;;;---values=;;;;;;;;;;;;;;;;;""",hp2.2.flac,,,,,,,,,,,,,,,,,,,,,,,choice 2,,,,,,,,,,,,,,,,,,,hp2.2.flac,,,,,yes,,,2022-01-19T02:48:40.000Z,355513,group_12,394101,Prediction3/Cat.2,1,2022-01-19T01:51:32.000Z,,,,not measured,,True
6,HP_Screen,1,imported_HP Instructions,1,1,,,,,,,1,,,,,,,,,,,,,,,3.0,,,,,,,,,,,,,,,,,,,,,,,,,,,,,,,,,,,,,,,,,,,,,,,,,,yes,,,2022-01-19T02:48:40.000Z,355513,group_12,394101,Prediction3/Cat.2,1,2022-01-19T01:51:32.000Z,,,,not measured,,True
4,GenInstructPredCat,1,InstructionsPredCat,1,1,,,,,,,1,,,,,,,,,,,,,,,,,,,,,,,,,,,,,,,,,,,,,,,,,,,,,,,,,,,,,,,,,,,,,,,,,yes,,,2022-01-19T02:48:40.000Z,355513,group_12,394101,Prediction3/Cat.2,1,2022-01-19T01:51:32.000Z,,,,not measured,,True
2,Consent,1,Consent,1,1,,,,,,,1,,,,,,,,,,,,,,,,,,,,,,,,,,,,,,,,,,,,,,,,,,,,,,,,,,,,,,,,,,,,,,,,,yes,,,2022-01-19T02:48:40.000Z,355513,group_12,394101,Prediction3/Cat.2,1,2022-01-19T01:51:32.000Z,,,,not measured,,True
