Block_Nr,Block_Name,Task_Nr,Task_Name,Trial_Nr,Trial_Id,ab_pitch,age_range,answer,best_instru,choice,clip,Condition_Id,conditions,consent,correct_incorrect_m_2,correct_incorrect_m_3,correct_incorrect_mem_1,correct_incorrect_p_1,correct_incorrect_p_2,correct_incorrect_p_3,correct_incorrect_practice_m,correct_incorrect_practice_p,correctCount,decision,earworm,errorCount,exampleCount,familiarity,fileArray,filePick,Frequenc,genre,genre_3,genre_4,hour,imagery,imagery_2,Instr,isCorrect,listen_time,music_theory,name_instru,nrErrors,num_instru,participant_choice,participant_choice_2,participant_choice2,participant_spacePress,participant_spacePress2,played_notplayed,practice_catseg_scramble,relative_pitch,response,response_seg,response_seg2,response_Time2,responseTime,retestCount,scramble_cat_1,scramble_cat_3,scramble_cat_4,scramble_catseg_4,scramble_level,scramble_m_1,scramble_m_2,scramble_m_3,scramble_open_3,scramble_p_1,scramble_p_2,scramble_p_3,set1response,soundName,strategy,time_atClipStart1,toneSequence,always_fullscreen,completed,crowdsourcing_code,crowdsourcing_subj_id,end_time,exp_subject_id,group_name,rec_session_id,session_name,session_nr,start_time,subj_counter_global,subj_counter_per_group,subject_code,time_delay_offset,time_measure_std,unlocked
13,Post-Survey,1,Post-Survey,1,1,,,,,,,1,,,,,,,,,,,,,,,,2.0,,,,,,,,,,,,,,,,,,,,,,option_1,,,,,,,,,,,,,,,,,,,,,,,"I just tried to listen carefully to the lowest or highest notes of the clips, and make sure in the second clip, that there weren't any higher or lower notes",,,,yes,,,2022-01-19T02:48:59.000Z,355517,group_9,394105,Prediction3/Open2,1,2022-01-19T01:54:57.000Z,,,,not measured,,True
11,OpenEndedSeg_2,4,OpenEndedSeg_2,1,12,,,,,,,3,,,,,,,,,,,,,,,,,,,,,,,,,,,,,,,,,,,,,"""times=1642559357791---values=""",,,,,,,,,,,,,,2B,,,,,,,,,,,,,,yes,,,2022-01-19T02:48:59.000Z,355517,group_9,394105,Prediction3/Open2,1,2022-01-19T01:54:57.000Z,,,,not measured,,True
11,OpenEndedSeg_2,4,OpenEndedSeg_2,2,9,,,,,,,3,,,,,,,,,,,,,,,,,,,,,,,,,,,,,,,,,,,,,"""times=1642559590450---values=55461""",,,,,,,,,,,,,,2B,,,,,,,,,,,,,,yes,,,2022-01-19T02:48:59.000Z,355517,group_9,394105,Prediction3/Open2,1,2022-01-19T01:54:57.000Z,,,,not measured,,True
11,OpenEndedSeg_2,4,OpenEndedSeg_2,3,6,,,,,,,2,,,,,,,,,,,,,,,,,,,,,,,,,,,,,,,,,,,,,"""times=1642559594291;1642559708417---values=;47130""",,,,,,,,,,,,,,8B,,,,,,,,,,,,,,yes,,,2022-01-19T02:48:59.000Z,355517,group_9,394105,Prediction3/Open2,1,2022-01-19T01:54:57.000Z,,,,not measured,,True
11,OpenEndedSeg_2,4,OpenEndedSeg_2,4,7,,,,,,,2,,,,,,,,,,,,,,,,,,,,,,,,,,,,,,,,,,,,,"""times=1642559728728;1642559831157---values=;43070""",,,,,,,,,,,,,,8B,,,,,,,,,,,,,,yes,,,2022-01-19T02:48:59.000Z,355517,group_9,394105,Prediction3/Open2,1,2022-01-19T01:54:57.000Z,,,,not measured,,True
11,OpenEndedSeg_2,4,OpenEndedSeg_2,5,15,,,,,,,4,,,,,,,,,,,,,,,,,,,,,,,,,,,,,,,,,,,,,"""times=1642559847790;1642559953644;1642559954235---values=;45091;45682""",,,,,,,,,,,,,,1B,,,,,,,,,,,,,,yes,,,2022-01-19T02:48:59.000Z,355517,group_9,394105,Prediction3/Open2,1,2022-01-19T01:54:57.000Z,,,,not measured,,True
11,OpenEndedSeg_2,4,OpenEndedSeg_2,6,1,,,,,,,1,,,,,,,,,,,,,,,,,,,,,,,,,,,,,,,,,,,,,"""times=1642559969708;1642560072465---values=;34080""",,,,,,,,,,,,,,intact,,,,,,,,,,,,,,yes,,,2022-01-19T02:48:59.000Z,355517,group_9,394105,Prediction3/Open2,1,2022-01-19T01:54:57.000Z,,,,not measured,,True
11,OpenEndedSeg_2,4,OpenEndedSeg_2,7,2,,,,,,,1,,,,,,,,,,,,,,,,,,,,,,,,,,,,,,,,,,,,,"""times=1642560107488;1642560220345---values=;50179""",,,,,,,,,,,,,,intact,,,,,,,,,,,,,,yes,,,2022-01-19T02:48:59.000Z,355517,group_9,394105,Prediction3/Open2,1,2022-01-19T01:54:57.000Z,,,,not measured,,True
11,OpenEndedSeg_2,4,OpenEndedSeg_2,8,16,,,,,,,4,,,,,,,,,,,,,,,,,,,,,,,,,,,,,,,,,,,,,"""times=1642560233202;1642560317762;1642560322108---values=;23679;28025""",,,,,,,,,,,,,,1B,,,,,,,,,,,,,,yes,,,2022-01-19T02:48:59.000Z,355517,group_9,394105,Prediction3/Open2,1,2022-01-19T01:54:57.000Z,,,,not measured,,True
11,OpenEndedSeg_2,3,Ready?,1,1,,,,,,,1,,,,,,,,,,,,,,,,,,,,,,,,,,,,,,,,,,,,,,,,,,,,,,,,,,,,,,,,,,,,,,,,,yes,,,2022-01-19T02:48:59.000Z,355517,group_9,394105,Prediction3/Open2,1,2022-01-19T01:54:57.000Z,,,,not measured,,True
11,OpenEndedSeg_2,2,Practice_OpenEnded,1,1,,,,,,,1,,,,,,,,,,,,,,,,,,,,,,,,,,,,,,,,,,,,,"""times=1642559297071---values=25262""",,,,,,,,,,,,,,,,,,,,,,,,,,,,yes,,,2022-01-19T02:48:59.000Z,355517,group_9,394105,Prediction3/Open2,1,2022-01-19T01:54:57.000Z,,,,not measured,,True
11,OpenEndedSeg_2,1,Instructions_Open,1,1,,,,,,,1,,,,,,,,,,,,,,,,,,,,,,,,,,,,,,,,,,,,,,,,,,,,,,,,,,,,,,,,,,,,,,,,,yes,,,2022-01-19T02:48:59.000Z,355517,group_9,394105,Prediction3/Open2,1,2022-01-19T01:54:57.000Z,,,,not measured,,True
9,Prediction3,4,Prediction_3,1,36,,,,,Second,4_2B_prediction_5.mp3,4,,,,,,,,incorrect_left,,,,,,,,,,,,,,,,,,,,,,,,,,,,,,,,,Correct,,,,749.0,,,,,,,,,,,,,2B,,,,,,,yes,,,2022-01-19T02:48:59.000Z,355517,group_9,394105,Prediction3/Open2,1,2022-01-19T01:54:57.000Z,,,,not measured,,True
9,Prediction3,4,Prediction_3,2,43,,,,,First,3_1B_prediction_8.mp3,5,,,,,,,,correct_left,,,,,,,,,,,,,,,,,,,,,,,,,,,,,,,,,Correct,,,,862.0,,,,,,,,,,,,,1B,,,,,,,yes,,,2022-01-19T02:48:59.000Z,355517,group_9,394105,Prediction3/Open2,1,2022-01-19T01:54:57.000Z,,,,not measured,,True
9,Prediction3,4,Prediction_3,3,31,,,,,Second,3_2B_prediction_6.mp3,4,,,,,,,,incorrect_left,,,,,,,,,,,,,,,,,,,,,,,,,,,,,,,,,Correct,,,,685.0,,,,,,,,,,,,,2B,,,,,,,yes,,,2022-01-19T02:48:59.000Z,355517,group_9,394105,Prediction3/Open2,1,2022-01-19T01:54:57.000Z,,,,not measured,,True
9,Prediction3,4,Prediction_3,4,3,,,,,First,3_8B_prediction_8.mp3,1,,,,,,,,correct_left,,,,,,,,,,,,,,,,,,,,,,,,,,,,,,,,,Correct,,,,515.0,,,,,,,,,,,,,8B,,,,,,,yes,,,2022-01-19T02:48:59.000Z,355517,group_9,394105,Prediction3/Open2,1,2022-01-19T01:54:57.000Z,,,,not measured,,True
9,Prediction3,4,Prediction_3,5,28,,,,,Second,4_2B_prediction_7.mp3,3,,,,,,,,correct_left,,,,,,,,,,,,,,,,,,,,,,,,,,,,,,,,,Incorrect,,,,549.0,,,,,,,,,,,,,2B,,,,,,,yes,,,2022-01-19T02:48:59.000Z,355517,group_9,394105,Prediction3/Open2,1,2022-01-19T01:54:57.000Z,,,,not measured,,True
9,Prediction3,4,Prediction_3,6,8,,,,,First,4_8B_prediction_7.mp3,1,,,,,,,,correct_left,,,,,,,,,,,,,,,,,,,,,,,,,,,,,,,,,Correct,,,,537.0,,,,,,,,,,,,,8B,,,,,,,yes,,,2022-01-19T02:48:59.000Z,355517,group_9,394105,Prediction3/Open2,1,2022-01-19T01:54:57.000Z,,,,not measured,,True
9,Prediction3,4,Prediction_3,7,49,,,,,Second,4_1B_prediction_8.mp3,5,,,,,,,,correct_left,,,,,,,,,,,,,,,,,,,,,,,,,,,,,,,,,Incorrect,,,,1189.0,,,,,,,,,,,,,1B,,,,,,,yes,,,2022-01-19T02:48:59.000Z,355517,group_9,394105,Prediction3/Open2,1,2022-01-19T01:54:57.000Z,,,,not measured,,True
9,Prediction3,4,Prediction_3,8,47,,,,,Second,4_1B_prediction_6.mp3,5,,,,,,,,correct_left,,,,,,,,,,,,,,,,,,,,,,,,,,,,,,,,,Incorrect,,,,1615.0,,,,,,,,,,,,,1B,,,,,,,yes,,,2022-01-19T02:48:59.000Z,355517,group_9,394105,Prediction3/Open2,1,2022-01-19T01:54:57.000Z,,,,not measured,,True
9,Prediction3,4,Prediction_3,9,1,,,,,,3_8B_prediction_6.mp3,1,,,,,,,,correct_left,,,,,,,,,,,,,,,,,,,,,,,,,,,,,,,,,,,,,,,,,,,,,,,,,,8B,,,,,,,yes,,,2022-01-19T02:48:59.000Z,355517,group_9,394105,Prediction3/Open2,1,2022-01-19T01:54:57.000Z,,,,not measured,,True
9,Prediction3,4,Prediction_3,10,48,,,,,Second,4_1B_prediction_7.mp3,5,,,,,,,,correct_left,,,,,,,,,,,,,,,,,,,,,,,,,,,,,,,,,Incorrect,,,,505.0,,,,,,,,,,,,,1B,,,,,,,yes,,,2022-01-19T02:48:59.000Z,355517,group_9,394105,Prediction3/Open2,1,2022-01-19T01:54:57.000Z,,,,not measured,,True
9,Prediction3,4,Prediction_3,11,29,,,,,First,4_2B_prediction_8.mp3,3,,,,,,,,correct_left,,,,,,,,,,,,,,,,,,,,,,,,,,,,,,,,,Correct,,,,744.0,,,,,,,,,,,,,2B,,,,,,,yes,,,2022-01-19T02:48:59.000Z,355517,group_9,394105,Prediction3/Open2,1,2022-01-19T01:54:57.000Z,,,,not measured,,True
9,Prediction3,4,Prediction_3,12,14,,,,,Second,3_8B_prediction_9.mp3,2,,,,,,,,incorrect_left,,,,,,,,,,,,,,,,,,,,,,,,,,,,,,,,,Correct,,,,506.0,,,,,,,,,,,,,8B,,,,,,,yes,,,2022-01-19T02:48:59.000Z,355517,group_9,394105,Prediction3/Open2,1,2022-01-19T01:54:57.000Z,,,,not measured,,True
9,Prediction3,4,Prediction_3,13,51,,,,,Second,3_1B_prediction_6.mp3,6,,,,,,,,incorrect_left,,,,,,,,,,,,,,,,,,,,,,,,,,,,,,,,,Correct,,,,542.0,,,,,,,,,,,,,1B,,,,,,,yes,,,2022-01-19T02:48:59.000Z,355517,group_9,394105,Prediction3/Open2,1,2022-01-19T01:54:57.000Z,,,,not measured,,True
9,Prediction3,4,Prediction_3,14,10,,,,,First,4_8B_prediction_9.mp3,1,,,,,,,,correct_left,,,,,,,,,,,,,,,,,,,,,,,,,,,,,,,,,Correct,,,,562.0,,,,,,,,,,,,,8B,,,,,,,yes,,,2022-01-19T02:48:59.000Z,355517,group_9,394105,Prediction3/Open2,1,2022-01-19T01:54:57.000Z,,,,not measured,,True
9,Prediction3,4,Prediction_3,15,46,,,,,Second,4_1B_prediction_5.mp3,5,,,,,,,,correct_left,,,,,,,,,,,,,,,,,,,,,,,,,,,,,,,,,Incorrect,,,,743.0,,,,,,,,,,,,,1B,,,,,,,yes,,,2022-01-19T02:48:59.000Z,355517,group_9,394105,Prediction3/Open2,1,2022-01-19T01:54:57.000Z,,,,not measured,,True
9,Prediction3,4,Prediction_3,16,35,,,,,Second,3_2B_prediction_10.mp3,4,,,,,,,,incorrect_left,,,,,,,,,,,,,,,,,,,,,,,,,,,,,,,,,Correct,,,,468.0,,,,,,,,,,,,,2B,,,,,,,yes,,,2022-01-19T02:48:59.000Z,355517,group_9,394105,Prediction3/Open2,1,2022-01-19T01:54:57.000Z,,,,not measured,,True
9,Prediction3,4,Prediction_3,17,12,,,,,First,3_8B_prediction_7.mp3,2,,,,,,,,incorrect_left,,,,,,,,,,,,,,,,,,,,,,,,,,,,,,,,,Incorrect,,,,475.0,,,,,,,,,,,,,8B,,,,,,,yes,,,2022-01-19T02:48:59.000Z,355517,group_9,394105,Prediction3/Open2,1,2022-01-19T01:54:57.000Z,,,,not measured,,True
9,Prediction3,4,Prediction_3,18,19,,,,,Second,4_8B_prediction_8.mp3,2,,,,,,,,incorrect_left,,,,,,,,,,,,,,,,,,,,,,,,,,,,,,,,,Correct,,,,771.0,,,,,,,,,,,,,8B,,,,,,,yes,,,2022-01-19T02:48:59.000Z,355517,group_9,394105,Prediction3/Open2,1,2022-01-19T01:54:57.000Z,,,,not measured,,True
9,Prediction3,4,Prediction_3,19,60,,,,,Second,4_1B_prediction_9.mp3,6,,,,,,,,incorrect_left,,,,,,,,,,,,,,,,,,,,,,,,,,,,,,,,,Correct,,,,784.0,,,,,,,,,,,,,1B,,,,,,,yes,,,2022-01-19T02:48:59.000Z,355517,group_9,394105,Prediction3/Open2,1,2022-01-19T01:54:57.000Z,,,,not measured,,True
9,Prediction3,4,Prediction_3,20,32,,,,,First,3_2B_prediction_7.mp3,4,,,,,,,,incorrect_left,,,,,,,,,,,,,,,,,,,,,,,,,,,,,,,,,Incorrect,,,,930.0,,,,,,,,,,,,,2B,,,,,,,yes,,,2022-01-19T02:48:59.000Z,355517,group_9,394105,Prediction3/Open2,1,2022-01-19T01:54:57.000Z,,,,not measured,,True
9,Prediction3,4,Prediction_3,21,33,,,,,Second,3_2B_prediction_8.mp3,4,,,,,,,,incorrect_left,,,,,,,,,,,,,,,,,,,,,,,,,,,,,,,,,Correct,,,,996.0,,,,,,,,,,,,,2B,,,,,,,yes,,,2022-01-19T02:48:59.000Z,355517,group_9,394105,Prediction3/Open2,1,2022-01-19T01:54:57.000Z,,,,not measured,,True
9,Prediction3,4,Prediction_3,22,40,,,,,Second,4_2B_prediction_9.mp3,4,,,,,,,,incorrect_left,,,,,,,,,,,,,,,,,,,,,,,,,,,,,,,,,Correct,,,,529.0,,,,,,,,,,,,,2B,,,,,,,yes,,,2022-01-19T02:48:59.000Z,355517,group_9,394105,Prediction3/Open2,1,2022-01-19T01:54:57.000Z,,,,not measured,,True
9,Prediction3,4,Prediction_3,23,54,,,,,Second,3_1B_prediction_9.mp3,6,,,,,,,,incorrect_left,,,,,,,,,,,,,,,,,,,,,,,,,,,,,,,,,Correct,,,,578.0,,,,,,,,,,,,,1B,,,,,,,yes,,,2022-01-19T02:48:59.000Z,355517,group_9,394105,Prediction3/Open2,1,2022-01-19T01:54:57.000Z,,,,not measured,,True
9,Prediction3,4,Prediction_3,24,55,,,,,Second,3_1B_prediction_10.mp3,6,,,,,,,,incorrect_left,,,,,,,,,,,,,,,,,,,,,,,,,,,,,,,,,Correct,,,,674.0,,,,,,,,,,,,,1B,,,,,,,yes,,,2022-01-19T02:48:59.000Z,355517,group_9,394105,Prediction3/Open2,1,2022-01-19T01:54:57.000Z,,,,not measured,,True
9,Prediction3,4,Prediction_3,25,42,,,,,Second,3_1B_prediction_7.mp3,5,,,,,,,,correct_left,,,,,,,,,,,,,,,,,,,,,,,,,,,,,,,,,Incorrect,,,,942.0,,,,,,,,,,,,,1B,,,,,,,yes,,,2022-01-19T02:48:59.000Z,355517,group_9,394105,Prediction3/Open2,1,2022-01-19T01:54:57.000Z,,,,not measured,,True
9,Prediction3,4,Prediction_3,26,5,,,,,First,3_8B_prediction_2.mp3,1,,,,,,,,correct_left,,,,,,,,,,,,,,,,,,,,,,,,,,,,,,,,,Correct,,,,1097.0,,,,,,,,,,,,,8B,,,,,,,yes,,,2022-01-19T02:48:59.000Z,355517,group_9,394105,Prediction3/Open2,1,2022-01-19T01:54:57.000Z,,,,not measured,,True
9,Prediction3,4,Prediction_3,27,24,,,,,First,3_2B_prediction_9.mp3,3,,,,,,,,correct_left,,,,,,,,,,,,,,,,,,,,,,,,,,,,,,,,,Correct,,,,1012.0,,,,,,,,,,,,,2B,,,,,,,yes,,,2022-01-19T02:48:59.000Z,355517,group_9,394105,Prediction3/Open2,1,2022-01-19T01:54:57.000Z,,,,not measured,,True
9,Prediction3,4,Prediction_3,28,7,,,,,First,4_8B_prediction_6.mp3,1,,,,,,,,correct_left,,,,,,,,,,,,,,,,,,,,,,,,,,,,,,,,,Correct,,,,851.0,,,,,,,,,,,,,8B,,,,,,,yes,,,2022-01-19T02:48:59.000Z,355517,group_9,394105,Prediction3/Open2,1,2022-01-19T01:54:57.000Z,,,,not measured,,True
9,Prediction3,4,Prediction_3,29,16,,,,,Second,4_8B_prediction_5.mp3,2,,,,,,,,incorrect_left,,,,,,,,,,,,,,,,,,,,,,,,,,,,,,,,,Correct,,,,851.0,,,,,,,,,,,,,8B,,,,,,,yes,,,2022-01-19T02:48:59.000Z,355517,group_9,394105,Prediction3/Open2,1,2022-01-19T01:54:57.000Z,,,,not measured,,True
9,Prediction3,4,Prediction_3,30,37,,,,,Second,4_2B_prediction_6.mp3,4,,,,,,,,incorrect_left,,,,,,,,,,,,,,,,,,,,,,,,,,,,,,,,,Correct,,,,497.0,,,,,,,,,,,,,2B,,,,,,,yes,,,2022-01-19T02:48:59.000Z,355517,group_9,394105,Prediction3/Open2,1,2022-01-19T01:54:57.000Z,,,,not measured,,True
9,Prediction3,3,Ready?,1,1,,,,,,,1,,,,,,,,,,,,,,,,,,,,,,,,,,,,,,,,,,,,,,,,,,,,,,,,,,,,,,,,,,,,,,,,,yes,,,2022-01-19T02:48:59.000Z,355517,group_9,394105,Prediction3/Open2,1,2022-01-19T01:54:57.000Z,,,,not measured,,True
9,Prediction3,2,Practice_Prediction,1,6,,,,,Second,,2,,,,,,,,,,incorrect_correct,,,,,,,,,,,,,,,,,,,,,,,,,,,,,,,Correct,,,,2432.0,,,,,,,,,,,,,,,,,,,,yes,,,2022-01-19T02:48:59.000Z,355517,group_9,394105,Prediction3/Open2,1,2022-01-19T01:54:57.000Z,,,,not measured,,True
9,Prediction3,2,Practice_Prediction,2,4,,,,,First,,2,,,,,,,,,,incorrect_correct,,,,,,,,,,,,,,,,,,,,,,,,,,,,,,,Incorrect,,,,924.0,,,,,,,,,,,,,,,,,,,,yes,,,2022-01-19T02:48:59.000Z,355517,group_9,394105,Prediction3/Open2,1,2022-01-19T01:54:57.000Z,,,,not measured,,True
9,Prediction3,2,Practice_Prediction,3,2,,,,,First,,1,,,,,,,,,,correct_incorrect,,,,,,,,,,,,,,,,,,,,,,,,,,,,,,,Correct,,,,1059.0,,,,,,,,,,,,,,,,,,,,yes,,,2022-01-19T02:48:59.000Z,355517,group_9,394105,Prediction3/Open2,1,2022-01-19T01:54:57.000Z,,,,not measured,,True
9,Prediction3,1,Instructions_Prediction,1,1,,,,,,,1,,,,,,,,,,,,,,,,,,,,,,,,,,,,,,,,,,,,,,,,,,,,,,,,,,,,,,,,,,,,,,,,,yes,,,2022-01-19T02:48:59.000Z,355517,group_9,394105,Prediction3/Open2,1,2022-01-19T01:54:57.000Z,,,,not measured,,True
7,AP_Screen,3,imported_AP_eval,1,1,,,,,,,1,,,,,,,,,,,,,,,,,,,,,,,,,,,,,,,0.0,,,,,,,,,,,,,,,,,,,,,,,,,,,,,,,,,,yes,,,2022-01-19T02:48:59.000Z,355517,group_9,394105,Prediction3/Open2,1,2022-01-19T01:54:57.000Z,,,,not measured,,True
7,AP_Screen,2,imported_AP_headphone test,1,5,,,,,,,5,,,,,,,,,,,,two,,,,,,,,,,,,,,,1.0,,,,0.0,,,,,,,,,,,,,,,,,,,,,,,,,,,,,,,,O_S_I,,yes,,,2022-01-19T02:48:59.000Z,355517,group_9,394105,Prediction3/Open2,1,2022-01-19T01:54:57.000Z,,,,not measured,,True
7,AP_Screen,2,imported_AP_headphone test,2,1,,,,,,,1,,,,,,,,,,,,three,,,,,,,,,,,,,,,1.0,,,,0.0,,,,,,,,,,,,,,,,,,,,,,,,,,,,,,,,I_O_S,,yes,,,2022-01-19T02:48:59.000Z,355517,group_9,394105,Prediction3/Open2,1,2022-01-19T01:54:57.000Z,,,,not measured,,True
7,AP_Screen,2,imported_AP_headphone test,3,6,,,,,,,6,,,,,,,,,,,,three,,,,,,,,,,,,,,,1.0,,,,0.0,,,,,,,,,,,,,,,,,,,,,,,,,,,,,,,,O_I_S,,yes,,,2022-01-19T02:48:59.000Z,355517,group_9,394105,Prediction3/Open2,1,2022-01-19T01:54:57.000Z,,,,not measured,,True
7,AP_Screen,2,imported_AP_headphone test,4,3,,,,,,,3,,,,,,,,,,,,one,,,,,,,,,,,,,,,1.0,,,,0.0,,,,,,,,,,,,,,,,,,,,,,,,,,,,,,,,S_O_I,,yes,,,2022-01-19T02:48:59.000Z,355517,group_9,394105,Prediction3/Open2,1,2022-01-19T01:54:57.000Z,,,,not measured,,True
7,AP_Screen,2,imported_AP_headphone test,5,4,,,,,,,4,,,,,,,,,,,,one,,,,,,,,,,,,,,,1.0,,,,0.0,,,,,,,,,,,,,,,,,,,,,,,,,,,,,,,,S_I_O,,yes,,,2022-01-19T02:48:59.000Z,355517,group_9,394105,Prediction3/Open2,1,2022-01-19T01:54:57.000Z,,,,not measured,,True
7,AP_Screen,2,imported_AP_headphone test,6,2,,,,,,,2,,,,,,,,,,,,two,,,,,,,,,,,,,,,1.0,,,,0.0,,,,,,,,,,,,,,,,,,,,,,,,,,,,,,,,I_S_O,,yes,,,2022-01-19T02:48:59.000Z,355517,group_9,394105,Prediction3/Open2,1,2022-01-19T01:54:57.000Z,,,,not measured,,True
7,AP_Screen,1,imported_AP_instruction,1,1,,,,,,,1,,,,,,,,,,,,,,,,,,,,,,,,,,,,,,,,,,,,,,,,,,,,,,,,,,,,,,,,,,,,,,,,,yes,,,2022-01-19T02:48:59.000Z,355517,group_9,394105,Prediction3/Open2,1,2022-01-19T01:54:57.000Z,,,,not measured,,True
6,HP_Screen,3,imported_HP Evaluation,1,1,,,,,,,1,,,,,,,,,,,,,,0.0,,,,,,,,,,,,,,,,,,,,,,,,,,,,,,,,,,,,,,,,,,,,,,,,,,,yes,,,2022-01-19T02:48:59.000Z,355517,group_9,394105,Prediction3/Open2,1,2022-01-19T01:54:57.000Z,,,,not measured,,True
6,HP_Screen,2,imported_HP Trials,1,1,,,,,,,1,,,,,,,,,,,,,,0.0,,,"""times=;;;;;;;;;;;;;;;;;---values=;;;;;;;;;;;;;;;;;""",hp4.2.flac,,,,,,,,,,,,,,,,,,,,,,,choice 2,,,,,,,,,,,,,,,,,,,hp4.2.flac,,,,,yes,,,2022-01-19T02:48:59.000Z,355517,group_9,394105,Prediction3/Open2,1,2022-01-19T01:54:57.000Z,,,,not measured,,True
6,HP_Screen,2,imported_HP Trials,2,6,,,,,,,1,,,,,,,,,,,,,,0.0,,,"""times=;;;;;;;;;;;;;;;;;---values=;;;;;;;;;;;;;;;;;""",hp4.3.flac,,,,,,,,,,,,,,,,,,,,,,,choice 3,,,,,,,,,,,,,,,,,,,hp4.3.flac,,,,,yes,,,2022-01-19T02:48:59.000Z,355517,group_9,394105,Prediction3/Open2,1,2022-01-19T01:54:57.000Z,,,,not measured,,True
6,HP_Screen,2,imported_HP Trials,3,2,,,,,,,1,,,,,,,,,,,,,,0.0,,,"""times=;;;;;;;;;;;;;;;;;---values=;;;;;;;;;;;;;;;;;""",hp3.2.flac,,,,,,,,,,,,,,,,,,,,,,,choice 2,,,,,,,,,,,,,,,,,,,hp3.2.flac,,,,,yes,,,2022-01-19T02:48:59.000Z,355517,group_9,394105,Prediction3/Open2,1,2022-01-19T01:54:57.000Z,,,,not measured,,True
6,HP_Screen,2,imported_HP Trials,4,4,,,,,,,1,,,,,,,,,,,,,,0.0,,,"""times=;;;;;;;;;;;;;;;;;---values=;;;;;;;;;;;;;;;;;""",hp6.3.flac,,,,,,,,,,,,,,,,,,,,,,,choice 3,,,,,,,,,,,,,,,,,,,hp6.3.flac,,,,,yes,,,2022-01-19T02:48:59.000Z,355517,group_9,394105,Prediction3/Open2,1,2022-01-19T01:54:57.000Z,,,,not measured,,True
6,HP_Screen,2,imported_HP Trials,5,5,,,,,,,1,,,,,,,,,,,,,,0.0,,,"""times=;;;;;;;;;;;;;;;;;---values=;;;;;;;;;;;;;;;;;""",hp1.1.flac,,,,,,,,,,,,,,,,,,,,,,,choice 1,,,,,,,,,,,,,,,,,,,hp1.1.flac,,,,,yes,,,2022-01-19T02:48:59.000Z,355517,group_9,394105,Prediction3/Open2,1,2022-01-19T01:54:57.000Z,,,,not measured,,True
6,HP_Screen,2,imported_HP Trials,6,3,,,,,,,1,,,,,,,,,,,,,,0.0,,,"""times=;;;;;;;;;;;;;;;;;---values=;;;;;;;;;;;;;;;;;""",hp5.2.flac,,,,,,,,,,,,,,,,,,,,,,,choice 2,,,,,,,,,,,,,,,,,,,hp5.2.flac,,,,,yes,,,2022-01-19T02:48:59.000Z,355517,group_9,394105,Prediction3/Open2,1,2022-01-19T01:54:57.000Z,,,,not measured,,True
6,HP_Screen,1,imported_HP Instructions,1,1,,,,,,,1,,,,,,,,,,,,,,,2.0,,,,,,,,,,,,,,,,,,,,,,,,,,,,,,,,,,,,,,,,,,,,,,,,,,yes,,,2022-01-19T02:48:59.000Z,355517,group_9,394105,Prediction3/Open2,1,2022-01-19T01:54:57.000Z,,,,not measured,,True
4,GenInstructPredOpen,1,InstructionsPredOpen,1,1,,,,,,,1,,,,,,,,,,,,,,,,,,,,,,,,,,,,,,,,,,,,,,,,,,,,,,,,,,,,,,,,,,,,,,,,,yes,,,2022-01-19T02:48:59.000Z,355517,group_9,394105,Prediction3/Open2,1,2022-01-19T01:54:57.000Z,,,,not measured,,True
2,Consent,1,Consent,1,1,,,,,,,1,,,,,,,,,,,,,,,,,,,,,,,,,,,,,,,,,,,,,,,,,,,,,,,,,,,,,,,,,,,,,,,,,yes,,,2022-01-19T02:48:59.000Z,355517,group_9,394105,Prediction3/Open2,1,2022-01-19T01:54:57.000Z,,,,not measured,,True
