Block_Nr,Block_Name,Task_Nr,Task_Name,Trial_Nr,Trial_Id,ab_pitch,age_range,answer,best_instru,choice,clip,Condition_Id,conditions,consent,correct_incorrect_m_2,correct_incorrect_m_3,correct_incorrect_mem_1,correct_incorrect_p_1,correct_incorrect_p_2,correct_incorrect_p_3,correct_incorrect_practice_m,correct_incorrect_practice_p,correctCount,decision,earworm,errorCount,exampleCount,familiarity,fileArray,filePick,Frequenc,genre,genre_3,genre_4,hour,imagery,imagery_2,Instr,isCorrect,listen_time,music_theory,name_instru,nrErrors,num_instru,participant_choice,participant_choice_2,participant_choice2,participant_spacePress,participant_spacePress2,played_notplayed,practice_catseg_scramble,relative_pitch,response,response_seg,response_seg2,response_Time2,responseTime,retestCount,scramble_cat_1,scramble_cat_3,scramble_cat_4,scramble_catseg_4,scramble_level,scramble_m_1,scramble_m_2,scramble_m_3,scramble_open_3,scramble_p_1,scramble_p_2,scramble_p_3,set1response,soundName,strategy,time_atClipStart1,toneSequence,always_fullscreen,completed,crowdsourcing_code,crowdsourcing_subj_id,end_time,exp_subject_id,group_name,rec_session_id,session_name,session_nr,start_time,subj_counter_global,subj_counter_per_group,subject_code,time_delay_offset,time_measure_std,unlocked
13,Post-Survey,1,Post-Survey,1,1,Yes,1937-10-01,,Guitar,,,1,,,,,,,,,,,,,5.0,,,1.0,,,Weekly,Classical (Soundtrack),Punk (70s & 90s),Funk,3-4 hours,,5.0,10 or more years,,3-4 hours,0 years,"Guitar, Piano, Ukulele, Bass, Violin, Drums, Harmonica, Melodica and more",,6 or more,,,,,,option_1,,Yes,,,,,,,,,,,,,,,,,,,,,Listened to each track and after a while got a sense of how long each part was meant to be and used that to try and decifer the answer for each one.,,,,yes,,,2022-01-20T02:09:01.000Z,356803,group_4,395575,Memory1/Cat.4,1,2022-01-20T01:15:41.000Z,,,,not measured,,True
11,CategorizationSeg_4,4,CategorizationSeg_4,1,15,,,,,,,4,,,,,,,,,,,,,,,,,,,,,,,,,,,,,,,,,Every 16 seconds (every 8 measures),Every 16 seconds (every 8 measures),,,,,,,,Incorrect,Incorrect,3160.0,2871.0,,,,,1B,,,,,,,,,,,,,,,yes,,,2022-01-20T02:09:01.000Z,356803,group_4,395575,Memory1/Cat.4,1,2022-01-20T01:15:41.000Z,,,,not measured,,True
11,CategorizationSeg_4,4,CategorizationSeg_4,2,3,,,,,,,1,,,,,,,,,,,,,,,,,,,,,,,,,,,,,,,,,Never,Never,,,,,,,,Correct,Correct,797.0,1172.0,,,,,intact,,,,,,,,,,,,,,,yes,,,2022-01-20T02:09:01.000Z,356803,group_4,395575,Memory1/Cat.4,1,2022-01-20T01:15:41.000Z,,,,not measured,,True
11,CategorizationSeg_4,4,CategorizationSeg_4,3,10,,,,,,,3,,,,,,,,,,,,,,,,,,,,,,,,,,,,,,,,,,Every 4 seconds (every 2 measures),,,,,,,,,Correct,1272.0,,,,,,2B,,,,,,,,,,,,,,,yes,,,2022-01-20T02:09:01.000Z,356803,group_4,395575,Memory1/Cat.4,1,2022-01-20T01:15:41.000Z,,,,not measured,,True
11,CategorizationSeg_4,4,CategorizationSeg_4,4,1,,,,,,,1,,,,,,,,,,,,,,,,,,,,,,,,,,,,,,,,,Every 16 seconds (every 8 measures),Every 16 seconds (every 8 measures),,,,,,,,Incorrect,Incorrect,1231.0,2242.0,,,,,intact,,,,,,,,,,,,,,,yes,,,2022-01-20T02:09:01.000Z,356803,group_4,395575,Memory1/Cat.4,1,2022-01-20T01:15:41.000Z,,,,not measured,,True
11,CategorizationSeg_4,4,CategorizationSeg_4,5,13,,,,,,,4,,,,,,,,,,,,,,,,,,,,,,,,,,,,,,,,,Every 2 seconds (every 1 measure),Every 2 seconds (every 1 measure),,,,,,,,Correct,Correct,1199.0,2755.0,,,,,1B,,,,,,,,,,,,,,,yes,,,2022-01-20T02:09:01.000Z,356803,group_4,395575,Memory1/Cat.4,1,2022-01-20T01:15:41.000Z,,,,not measured,,True
11,CategorizationSeg_4,4,CategorizationSeg_4,6,7,,,,,,,2,,,,,,,,,,,,,,,,,,,,,,,,,,,,,,,,,Never,Never,,,,,,,,Incorrect,Incorrect,2512.0,1801.0,,,,,8B,,,,,,,,,,,,,,,yes,,,2022-01-20T02:09:01.000Z,356803,group_4,395575,Memory1/Cat.4,1,2022-01-20T01:15:41.000Z,,,,not measured,,True
11,CategorizationSeg_4,4,CategorizationSeg_4,7,11,,,,,,,3,,,,,,,,,,,,,,,,,,,,,,,,,,,,,,,,,Every 2 seconds (every 1 measure),Every 2 seconds (every 1 measure),,,,,,,,Incorrect,Incorrect,1974.0,1185.0,,,,,2B,,,,,,,,,,,,,,,yes,,,2022-01-20T02:09:01.000Z,356803,group_4,395575,Memory1/Cat.4,1,2022-01-20T01:15:41.000Z,,,,not measured,,True
11,CategorizationSeg_4,4,CategorizationSeg_4,8,5,,,,,,,2,,,,,,,,,,,,,,,,,,,,,,,,,,,,,,,,,Every 16 seconds (every 8 measures),,,,,,,,,Correct,,,1735.0,,,,,8B,,,,,,,,,,,,,,,yes,,,2022-01-20T02:09:01.000Z,356803,group_4,395575,Memory1/Cat.4,1,2022-01-20T01:15:41.000Z,,,,not measured,,True
11,CategorizationSeg_4,3,Ready?,1,1,,,,,,,1,,,,,,,,,,,,,,,,,,,,,,,,,,,,,,,,,,,,,,,,,,,,,,,,,,,,,,,,,,,,,,,,,yes,,,2022-01-20T02:09:01.000Z,356803,group_4,395575,Memory1/Cat.4,1,2022-01-20T01:15:41.000Z,,,,not measured,,True
11,CategorizationSeg_4,2,Practice_Categorization,1,4,,,,,,,4,,,,,,,,,,,,,,,,,,,,,,,,,,,,,,,,,Never,Never,,,,,1B,,,Incorrect,Incorrect,1422.0,4743.0,,,,,,,,,,,,,,,,,,,,yes,,,2022-01-20T02:09:01.000Z,356803,group_4,395575,Memory1/Cat.4,1,2022-01-20T01:15:41.000Z,,,,not measured,,True
11,CategorizationSeg_4,1,Instructions for Categorization Seg.,1,1,,,,,,,1,,,,,,,,,,,,,,,,,,,,,,,,,,,,,,,,,,,,,,,,,,,,,,,,,,,,,,,,,,,,,,,,,yes,,,2022-01-20T02:09:01.000Z,356803,group_4,395575,Memory1/Cat.4,1,2022-01-20T01:15:41.000Z,,,,not measured,,True
9,Memory 1,4,Memory_1,1,44,,,,,,2_1B_memory_4.mp3,5,,,,,correct_left,,,,,,,,,,,,,,,,,,,,,,,,,,,,,,,,,,,,,,,,,,,,,,,1B,,,,,,,,,,,,,yes,,,2022-01-20T02:09:01.000Z,356803,group_4,395575,Memory1/Cat.4,1,2022-01-20T01:15:41.000Z,,,,not measured,,True
9,Memory 1,4,Memory_1,2,8,,,,,First,3_8B_memory_3.mp3,1,,,,,correct_left,,,,,,,,,,,,,,,,,,,,,,,,,,,,,,,,,,,,Correct,,,,709.0,,,,,,,8B,,,,,,,,,,,,,yes,,,2022-01-20T02:09:01.000Z,356803,group_4,395575,Memory1/Cat.4,1,2022-01-20T01:15:41.000Z,,,,not measured,,True
9,Memory 1,4,Memory_1,3,42,,,,,First,2_1B_memory_2.mp3,5,,,,,correct_left,,,,,,,,,,,,,,,,,,,,,,,,,,,,,,,,,,,,Correct,,,,1339.0,,,,,,,1B,,,,,,,,,,,,,yes,,,2022-01-20T02:09:01.000Z,356803,group_4,395575,Memory1/Cat.4,1,2022-01-20T01:15:41.000Z,,,,not measured,,True
9,Memory 1,4,Memory_1,4,2,,,,,Second,2_8B_memory_2.mp3,1,,,,,correct_left,,,,,,,,,,,,,,,,,,,,,,,,,,,,,,,,,,,,Incorrect,,,,1062.0,,,,,,,8B,,,,,,,,,,,,,yes,,,2022-01-20T02:09:01.000Z,356803,group_4,395575,Memory1/Cat.4,1,2022-01-20T01:15:41.000Z,,,,not measured,,True
9,Memory 1,4,Memory_1,5,16,,,,,First,3_8B_memory_1.mp3,2,,,,,incorrect_left,,,,,,,,,,,,,,,,,,,,,,,,,,,,,,,,,,,,Incorrect,,,,1848.0,,,,,,,8B,,,,,,,,,,,,,yes,,,2022-01-20T02:09:01.000Z,356803,group_4,395575,Memory1/Cat.4,1,2022-01-20T01:15:41.000Z,,,,not measured,,True
9,Memory 1,4,Memory_1,6,36,,,,,Second,3_2B_memory_1.mp3,4,,,,,incorrect_left,,,,,,,,,,,,,,,,,,,,,,,,,,,,,,,,,,,,Correct,,,,2458.0,,,,,,,2B,,,,,,,,,,,,,yes,,,2022-01-20T02:09:01.000Z,356803,group_4,395575,Memory1/Cat.4,1,2022-01-20T01:15:41.000Z,,,,not measured,,True
9,Memory 1,4,Memory_1,7,29,,,,,First,3_2B_memory_4.mp3,3,,,,,correct_left,,,,,,,,,,,,,,,,,,,,,,,,,,,,,,,,,,,,Correct,,,,830.0,,,,,,,2B,,,,,,,,,,,,,yes,,,2022-01-20T02:09:01.000Z,356803,group_4,395575,Memory1/Cat.4,1,2022-01-20T01:15:41.000Z,,,,not measured,,True
9,Memory 1,4,Memory_1,8,31,,,,,Second,2_2B_memory_1.mp3,4,,,,,incorrect_left,,,,,,,,,,,,,,,,,,,,,,,,,,,,,,,,,,,,Correct,,,,1147.0,,,,,,,2B,,,,,,,,,,,,,yes,,,2022-01-20T02:09:01.000Z,356803,group_4,395575,Memory1/Cat.4,1,2022-01-20T01:15:41.000Z,,,,not measured,,True
9,Memory 1,4,Memory_1,9,51,,,,,Second,2_1B_memory_1.mp3,6,,,,,incorrect_left,,,,,,,,,,,,,,,,,,,,,,,,,,,,,,,,,,,,Correct,,,,910.0,,,,,,,1B,,,,,,,,,,,,,yes,,,2022-01-20T02:09:01.000Z,356803,group_4,395575,Memory1/Cat.4,1,2022-01-20T01:15:41.000Z,,,,not measured,,True
9,Memory 1,4,Memory_1,10,45,,,,,First,2_1B_memory_5.mp3,5,,,,,correct_left,,,,,,,,,,,,,,,,,,,,,,,,,,,,,,,,,,,,Correct,,,,950.0,,,,,,,1B,,,,,,,,,,,,,yes,,,2022-01-20T02:09:01.000Z,356803,group_4,395575,Memory1/Cat.4,1,2022-01-20T01:15:41.000Z,,,,not measured,,True
9,Memory 1,4,Memory_1,11,59,,,,,Second,3_1B_memory_4.mp3,6,,,,,incorrect_left,,,,,,,,,,,,,,,,,,,,,,,,,,,,,,,,,,,,Correct,,,,1206.0,,,,,,,1B,,,,,,,,,,,,,yes,,,2022-01-20T02:09:01.000Z,356803,group_4,395575,Memory1/Cat.4,1,2022-01-20T01:15:41.000Z,,,,not measured,,True
9,Memory 1,4,Memory_1,12,27,,,,,Second,3_2B_memory_2.mp3,3,,,,,correct_left,,,,,,,,,,,,,,,,,,,,,,,,,,,,,,,,,,,,Incorrect,,,,852.0,,,,,,,2B,,,,,,,,,,,,,yes,,,2022-01-20T02:09:01.000Z,356803,group_4,395575,Memory1/Cat.4,1,2022-01-20T01:15:41.000Z,,,,not measured,,True
9,Memory 1,4,Memory_1,13,56,,,,,First,3_1B_memory_1.mp3,6,,,,,incorrect_left,,,,,,,,,,,,,,,,,,,,,,,,,,,,,,,,,,,,Incorrect,,,,725.0,,,,,,,1B,,,,,,,,,,,,,yes,,,2022-01-20T02:09:01.000Z,356803,group_4,395575,Memory1/Cat.4,1,2022-01-20T01:15:41.000Z,,,,not measured,,True
9,Memory 1,4,Memory_1,14,48,,,,,First,3_1B_memory_3.mp3,5,,,,,correct_left,,,,,,,,,,,,,,,,,,,,,,,,,,,,,,,,,,,,Correct,,,,1101.0,,,,,,,1B,,,,,,,,,,,,,yes,,,2022-01-20T02:09:01.000Z,356803,group_4,395575,Memory1/Cat.4,1,2022-01-20T01:15:41.000Z,,,,not measured,,True
9,Memory 1,4,Memory_1,15,9,,,,,First,3_8B_memory_4.mp3,1,,,,,correct_left,,,,,,,,,,,,,,,,,,,,,,,,,,,,,,,,,,,,Correct,,,,670.0,,,,,,,8B,,,,,,,,,,,,,yes,,,2022-01-20T02:09:01.000Z,356803,group_4,395575,Memory1/Cat.4,1,2022-01-20T01:15:41.000Z,,,,not measured,,True
9,Memory 1,4,Memory_1,16,40,,,,,First,3_2B_memory_5.mp3,4,,,,,incorrect_left,,,,,,,,,,,,,,,,,,,,,,,,,,,,,,,,,,,,Incorrect,,,,702.0,,,,,,,2B,,,,,,,,,,,,,yes,,,2022-01-20T02:09:01.000Z,356803,group_4,395575,Memory1/Cat.4,1,2022-01-20T01:15:41.000Z,,,,not measured,,True
9,Memory 1,4,Memory_1,17,60,,,,,Second,3_1B_memory_5.mp3,6,,,,,incorrect_left,,,,,,,,,,,,,,,,,,,,,,,,,,,,,,,,,,,,Correct,,,,820.0,,,,,,,1B,,,,,,,,,,,,,yes,,,2022-01-20T02:09:01.000Z,356803,group_4,395575,Memory1/Cat.4,1,2022-01-20T01:15:41.000Z,,,,not measured,,True
9,Memory 1,4,Memory_1,18,7,,,,,First,3_8B_memory_2.mp3,1,,,,,correct_left,,,,,,,,,,,,,,,,,,,,,,,,,,,,,,,,,,,,Correct,,,,919.0,,,,,,,8B,,,,,,,,,,,,,yes,,,2022-01-20T02:09:01.000Z,356803,group_4,395575,Memory1/Cat.4,1,2022-01-20T01:15:41.000Z,,,,not measured,,True
9,Memory 1,4,Memory_1,19,35,,,,,Second,2_2B_memory_5.mp3,4,,,,,incorrect_left,,,,,,,,,,,,,,,,,,,,,,,,,,,,,,,,,,,,Correct,,,,975.0,,,,,,,2B,,,,,,,,,,,,,yes,,,2022-01-20T02:09:01.000Z,356803,group_4,395575,Memory1/Cat.4,1,2022-01-20T01:15:41.000Z,,,,not measured,,True
9,Memory 1,4,Memory_1,20,15,,,,,Second,2_8B_memory_5.mp3,2,,,,,incorrect_left,,,,,,,,,,,,,,,,,,,,,,,,,,,,,,,,,,,,Correct,,,,798.0,,,,,,,8B,,,,,,,,,,,,,yes,,,2022-01-20T02:09:01.000Z,356803,group_4,395575,Memory1/Cat.4,1,2022-01-20T01:15:41.000Z,,,,not measured,,True
9,Memory 1,4,Memory_1,21,33,,,,,Second,2_2B_memory_3.mp3,4,,,,,incorrect_left,,,,,,,,,,,,,,,,,,,,,,,,,,,,,,,,,,,,Correct,,,,774.0,,,,,,,2B,,,,,,,,,,,,,yes,,,2022-01-20T02:09:01.000Z,356803,group_4,395575,Memory1/Cat.4,1,2022-01-20T01:15:41.000Z,,,,not measured,,True
9,Memory 1,4,Memory_1,22,43,,,,,First,2_1B_memory_3.mp3,5,,,,,correct_left,,,,,,,,,,,,,,,,,,,,,,,,,,,,,,,,,,,,Correct,,,,939.0,,,,,,,1B,,,,,,,,,,,,,yes,,,2022-01-20T02:09:01.000Z,356803,group_4,395575,Memory1/Cat.4,1,2022-01-20T01:15:41.000Z,,,,not measured,,True
9,Memory 1,4,Memory_1,23,24,,,,,Second,2_2B_memory_4.mp3,3,,,,,correct_left,,,,,,,,,,,,,,,,,,,,,,,,,,,,,,,,,,,,Incorrect,,,,2226.0,,,,,,,2B,,,,,,,,,,,,,yes,,,2022-01-20T02:09:01.000Z,356803,group_4,395575,Memory1/Cat.4,1,2022-01-20T01:15:41.000Z,,,,not measured,,True
9,Memory 1,4,Memory_1,24,38,,,,,Second,3_2B_memory_3.mp3,4,,,,,incorrect_left,,,,,,,,,,,,,,,,,,,,,,,,,,,,,,,,,,,,Correct,,,,891.0,,,,,,,2B,,,,,,,,,,,,,yes,,,2022-01-20T02:09:01.000Z,356803,group_4,395575,Memory1/Cat.4,1,2022-01-20T01:15:41.000Z,,,,not measured,,True
9,Memory 1,4,Memory_1,25,4,,,,,First,2_8B_memory_4.mp3,1,,,,,correct_left,,,,,,,,,,,,,,,,,,,,,,,,,,,,,,,,,,,,Correct,,,,1059.0,,,,,,,8B,,,,,,,,,,,,,yes,,,2022-01-20T02:09:01.000Z,356803,group_4,395575,Memory1/Cat.4,1,2022-01-20T01:15:41.000Z,,,,not measured,,True
9,Memory 1,4,Memory_1,26,57,,,,,First,3_1B_memory_2.mp3,6,,,,,incorrect_left,,,,,,,,,,,,,,,,,,,,,,,,,,,,,,,,,,,,Incorrect,,,,1034.0,,,,,,,1B,,,,,,,,,,,,,yes,,,2022-01-20T02:09:01.000Z,356803,group_4,395575,Memory1/Cat.4,1,2022-01-20T01:15:41.000Z,,,,not measured,,True
9,Memory 1,4,Memory_1,27,3,,,,,First,2_8B_memory_3.mp3,1,,,,,correct_left,,,,,,,,,,,,,,,,,,,,,,,,,,,,,,,,,,,,Correct,,,,2594.0,,,,,,,8B,,,,,,,,,,,,,yes,,,2022-01-20T02:09:01.000Z,356803,group_4,395575,Memory1/Cat.4,1,2022-01-20T01:15:41.000Z,,,,not measured,,True
9,Memory 1,4,Memory_1,28,11,,,,,First,2_8B_memory_1.mp3,2,,,,,incorrect_left,,,,,,,,,,,,,,,,,,,,,,,,,,,,,,,,,,,,Incorrect,,,,3500.0,,,,,,,8B,,,,,,,,,,,,,yes,,,2022-01-20T02:09:01.000Z,356803,group_4,395575,Memory1/Cat.4,1,2022-01-20T01:15:41.000Z,,,,not measured,,True
9,Memory 1,4,Memory_1,29,32,,,,,First,2_2B_memory_2.mp3,4,,,,,incorrect_left,,,,,,,,,,,,,,,,,,,,,,,,,,,,,,,,,,,,Incorrect,,,,879.0,,,,,,,2B,,,,,,,,,,,,,yes,,,2022-01-20T02:09:01.000Z,356803,group_4,395575,Memory1/Cat.4,1,2022-01-20T01:15:41.000Z,,,,not measured,,True
9,Memory 1,4,Memory_1,30,10,,,,,First,3_8B_memory_5.mp3,1,,,,,correct_left,,,,,,,,,,,,,,,,,,,,,,,,,,,,,,,,,,,,Correct,,,,1152.0,,,,,,,8B,,,,,,,,,,,,,yes,,,2022-01-20T02:09:01.000Z,356803,group_4,395575,Memory1/Cat.4,1,2022-01-20T01:15:41.000Z,,,,not measured,,True
9,Memory 1,3,Ready?,1,1,,,,,,,1,,,,,,,,,,,,,,,,,,,,,,,,,,,,,,,,,,,,,,,,,,,,,,,,,,,,,,,,,,,,,,,,,yes,,,2022-01-20T02:09:01.000Z,356803,group_4,395575,Memory1/Cat.4,1,2022-01-20T01:15:41.000Z,,,,not measured,,True
9,Memory 1,2,Practice_Memory,1,3,,,,,First,,1,,,,,,,,,correct_incorrect,,,,,,,,,,,,,,,,,,,,,,,,,,,,,,,,Correct,,,,1400.0,,,,,,,,,,,,,,,,,,,,yes,,,2022-01-20T02:09:01.000Z,356803,group_4,395575,Memory1/Cat.4,1,2022-01-20T01:15:41.000Z,,,,not measured,,True
9,Memory 1,2,Practice_Memory,2,2,,,,,First,,1,,,,,,,,,correct_incorrect,,,,,,,,,,,,,,,,,,,,,,,,,,,,,,,,Correct,,,,864.0,,,,,,,,,,,,,,,,,,,,yes,,,2022-01-20T02:09:01.000Z,356803,group_4,395575,Memory1/Cat.4,1,2022-01-20T01:15:41.000Z,,,,not measured,,True
9,Memory 1,2,Practice_Memory,3,1,,,,,Second,,1,,,,,,,,,correct_incorrect,,,,,,,,,,,,,,,,,,,,,,,,,,,,,,,,Incorrect,,,,865.0,,,,,,,,,,,,,,,,,,,,yes,,,2022-01-20T02:09:01.000Z,356803,group_4,395575,Memory1/Cat.4,1,2022-01-20T01:15:41.000Z,,,,not measured,,True
9,Memory 1,1,Instructions_Memory,1,1,,,,,,,1,,,,,,,,,,,,,,,,,,,,,,,,,,,,,,,,,,,,,,,,,,,,,,,,,,,,,,,,,,,,,,,,,yes,,,2022-01-20T02:09:01.000Z,356803,group_4,395575,Memory1/Cat.4,1,2022-01-20T01:15:41.000Z,,,,not measured,,True
7,HP_Screen,3,imported_HP Evaluation,1,1,,,,,,,1,,,,,,,,,,,,,,0.0,,,,,,,,,,,,,,,,,,,,,,,,,,,,,,,,,,,,,,,,,,,,,,,,,,,yes,,,2022-01-20T02:09:01.000Z,356803,group_4,395575,Memory1/Cat.4,1,2022-01-20T01:15:41.000Z,,,,not measured,,True
7,HP_Screen,2,imported_HP Trials,1,3,,,,,,,1,,,,,,,,,,,,,,0.0,,,"""times=;;;;;;;;;;;;;;;;;---values=;;;;;;;;;;;;;;;;;""",hp6.2.flac,,,,,,,,,,,,,,,,,,,,,,,choice 2,,,,,,,,,,,,,,,,,,,hp6.2.flac,,,,,yes,,,2022-01-20T02:09:01.000Z,356803,group_4,395575,Memory1/Cat.4,1,2022-01-20T01:15:41.000Z,,,,not measured,,True
7,HP_Screen,2,imported_HP Trials,2,1,,,,,,,1,,,,,,,,,,,,,,0.0,,,"""times=;;;;;;;;;;;;;;;;;---values=;;;;;;;;;;;;;;;;;""",hp6.3.flac,,,,,,,,,,,,,,,,,,,,,,,choice 3,,,,,,,,,,,,,,,,,,,hp6.3.flac,,,,,yes,,,2022-01-20T02:09:01.000Z,356803,group_4,395575,Memory1/Cat.4,1,2022-01-20T01:15:41.000Z,,,,not measured,,True
7,HP_Screen,2,imported_HP Trials,3,5,,,,,,,1,,,,,,,,,,,,,,0.0,,,"""times=;;;;;;;;;;;;;;;;;---values=;;;;;;;;;;;;;;;;;""",hp1.3.flac,,,,,,,,,,,,,,,,,,,,,,,choice 3,,,,,,,,,,,,,,,,,,,hp1.3.flac,,,,,yes,,,2022-01-20T02:09:01.000Z,356803,group_4,395575,Memory1/Cat.4,1,2022-01-20T01:15:41.000Z,,,,not measured,,True
7,HP_Screen,2,imported_HP Trials,4,4,,,,,,,1,,,,,,,,,,,,,,0.0,,,"""times=;;;;;;;;;;;;;;;;;---values=;;;;;;;;;;;;;;;;;""",hp4.1.flac,,,,,,,,,,,,,,,,,,,,,,,choice 1,,,,,,,,,,,,,,,,,,,hp4.1.flac,,,,,yes,,,2022-01-20T02:09:01.000Z,356803,group_4,395575,Memory1/Cat.4,1,2022-01-20T01:15:41.000Z,,,,not measured,,True
7,HP_Screen,2,imported_HP Trials,5,2,,,,,,,1,,,,,,,,,,,,,,0.0,,,"""times=;;;;;;;;;;;;;;;;;---values=;;;;;;;;;;;;;;;;;""",hp2.1.flac,,,,,,,,,,,,,,,,,,,,,,,choice 1,,,,,,,,,,,,,,,,,,,hp2.1.flac,,,,,yes,,,2022-01-20T02:09:01.000Z,356803,group_4,395575,Memory1/Cat.4,1,2022-01-20T01:15:41.000Z,,,,not measured,,True
7,HP_Screen,2,imported_HP Trials,6,6,,,,,,,1,,,,,,,,,,,,,,0.0,,,"""times=;;;;;;;;;;;;;;;;;---values=;;;;;;;;;;;;;;;;;""",hp1.1.flac,,,,,,,,,,,,,,,,,,,,,,,choice 1,,,,,,,,,,,,,,,,,,,hp1.1.flac,,,,,yes,,,2022-01-20T02:09:01.000Z,356803,group_4,395575,Memory1/Cat.4,1,2022-01-20T01:15:41.000Z,,,,not measured,,True
7,HP_Screen,1,imported_HP Instructions,1,1,,,,,,,1,,,,,,,,,,,,,,,2.0,,,,,,,,,,,,,,,,,,,,,,,,,,,,,,,,,,,,,,,,,,,,,,,,,,yes,,,2022-01-20T02:09:01.000Z,356803,group_4,395575,Memory1/Cat.4,1,2022-01-20T01:15:41.000Z,,,,not measured,,True
6,AP_Screen,3,imported_AP_eval,1,1,,,,,,,1,,,,,,,,,,,,,,,,,,,,,,,,,,,,,,,0.0,,,,,,,,,,,,,,,,,,,,,,,,,,,,,,,,,,yes,,,2022-01-20T02:09:01.000Z,356803,group_4,395575,Memory1/Cat.4,1,2022-01-20T01:15:41.000Z,,,,not measured,,True
6,AP_Screen,2,imported_AP_headphone test,1,5,,,,,,,5,,,,,,,,,,,,two,,,,,,,,,,,,,,,1.0,,,,0.0,,,,,,,,,,,,,,,,,,,,,,,,,,,,,,,,O_S_I,,yes,,,2022-01-20T02:09:01.000Z,356803,group_4,395575,Memory1/Cat.4,1,2022-01-20T01:15:41.000Z,,,,not measured,,True
6,AP_Screen,2,imported_AP_headphone test,2,6,,,,,,,6,,,,,,,,,,,,three,,,,,,,,,,,,,,,1.0,,,,0.0,,,,,,,,,,,,,,,,,,,,,,,,,,,,,,,,O_I_S,,yes,,,2022-01-20T02:09:01.000Z,356803,group_4,395575,Memory1/Cat.4,1,2022-01-20T01:15:41.000Z,,,,not measured,,True
6,AP_Screen,2,imported_AP_headphone test,3,1,,,,,,,1,,,,,,,,,,,,three,,,,,,,,,,,,,,,1.0,,,,0.0,,,,,,,,,,,,,,,,,,,,,,,,,,,,,,,,I_O_S,,yes,,,2022-01-20T02:09:01.000Z,356803,group_4,395575,Memory1/Cat.4,1,2022-01-20T01:15:41.000Z,,,,not measured,,True
6,AP_Screen,2,imported_AP_headphone test,4,3,,,,,,,3,,,,,,,,,,,,one,,,,,,,,,,,,,,,1.0,,,,0.0,,,,,,,,,,,,,,,,,,,,,,,,,,,,,,,,S_O_I,,yes,,,2022-01-20T02:09:01.000Z,356803,group_4,395575,Memory1/Cat.4,1,2022-01-20T01:15:41.000Z,,,,not measured,,True
6,AP_Screen,2,imported_AP_headphone test,5,2,,,,,,,2,,,,,,,,,,,,two,,,,,,,,,,,,,,,1.0,,,,0.0,,,,,,,,,,,,,,,,,,,,,,,,,,,,,,,,I_S_O,,yes,,,2022-01-20T02:09:01.000Z,356803,group_4,395575,Memory1/Cat.4,1,2022-01-20T01:15:41.000Z,,,,not measured,,True
6,AP_Screen,2,imported_AP_headphone test,6,4,,,,,,,4,,,,,,,,,,,,one,,,,,,,,,,,,,,,1.0,,,,0.0,,,,,,,,,,,,,,,,,,,,,,,,,,,,,,,,S_I_O,,yes,,,2022-01-20T02:09:01.000Z,356803,group_4,395575,Memory1/Cat.4,1,2022-01-20T01:15:41.000Z,,,,not measured,,True
6,AP_Screen,1,imported_AP_instruction,1,1,,,,,,,1,,,,,,,,,,,,,,,,,,,,,,,,,,,,,,,,,,,,,,,,,,,,,,,,,,,,,,,,,,,,,,,,,yes,,,2022-01-20T02:09:01.000Z,356803,group_4,395575,Memory1/Cat.4,1,2022-01-20T01:15:41.000Z,,,,not measured,,True
4,GenInstructMemCat,1,InstructionsMemCat,1,1,,,,,,,1,,,,,,,,,,,,,,,,,,,,,,,,,,,,,,,,,,,,,,,,,,,,,,,,,,,,,,,,,,,,,,,,,yes,,,2022-01-20T02:09:01.000Z,356803,group_4,395575,Memory1/Cat.4,1,2022-01-20T01:15:41.000Z,,,,not measured,,True
2,Consent,1,Consent,1,1,,,,,,,1,,,,,,,,,,,,,,,,,,,,,,,,,,,,,,,,,,,,,,,,,,,,,,,,,,,,,,,,,,,,,,,,,yes,,,2022-01-20T02:09:01.000Z,356803,group_4,395575,Memory1/Cat.4,1,2022-01-20T01:15:41.000Z,,,,not measured,,True
