Block_Nr,Block_Name,Task_Nr,Task_Name,Trial_Nr,Trial_Id,ab_pitch,age_range,answer,best_instru,choice,clip,Condition_Id,conditions,consent,correct_incorrect_m_2,correct_incorrect_m_3,correct_incorrect_mem_1,correct_incorrect_p_1,correct_incorrect_p_2,correct_incorrect_p_3,correct_incorrect_practice_m,correct_incorrect_practice_p,correctCount,decision,earworm,errorCount,exampleCount,familiarity,fileArray,filePick,Frequenc,genre,genre_3,genre_4,hour,imagery,imagery_2,Instr,isCorrect,listen_time,music_theory,name_instru,nrErrors,num_instru,participant_choice,participant_choice_2,participant_choice2,participant_spacePress,participant_spacePress2,played_notplayed,practice_catseg_scramble,relative_pitch,response,response_seg,response_seg2,response_Time2,responseTime,retestCount,scramble_cat_1,scramble_cat_3,scramble_cat_4,scramble_catseg_4,scramble_level,scramble_m_1,scramble_m_2,scramble_m_3,scramble_open_3,scramble_p_1,scramble_p_2,scramble_p_3,set1response,soundName,strategy,time_atClipStart1,toneSequence,always_fullscreen,completed,crowdsourcing_code,crowdsourcing_subj_id,end_time,exp_subject_id,group_name,rec_session_id,session_name,session_nr,start_time,subj_counter_global,subj_counter_per_group,subject_code,time_delay_offset,time_measure_std,unlocked
13,Post-Survey,1,Post-Survey,1,1,,,,,,,1,,,,,,,,,,,,,,,,1.0,,,,,,,,,,,,,,,,,,,,,,option_1,,,,,,,,,,,,,,,,,,,,,,,"There was not much strategy involved, I clicked when the music changed.",,,,yes,,,2022-01-21T00:37:42.000Z,357468,group_7,396364,Prediction1/Open4,1,2022-01-20T23:50:42.000Z,,,,not measured,,True
11,OpenEndedSeg_4,4,OpenEndedSeg_4,1,10,,,,,,,3,,,,,,,,,,,,,,,,,,,,,,,,,,,,,,,,,,,,"""times=1642724347368;1642724355534;1642724361296;1642724367592;1642724374358;1642724388031;1642724393367---values=13967;22133;27895;34191;40957;54630;59966""","""times=1642724333345;1642724404629;1642724412928;1642724417961;1642724421454;1642724432471;1642724440951;1642724452454;1642724463040---values=;4751;13050;18083;21576;32593;41073;52576;63162""",,,,,,,,,,,,2B,,,,,,,,,,,,,,,,yes,,,2022-01-21T00:37:42.000Z,357468,group_7,396364,Prediction1/Open4,1,2022-01-20T23:50:42.000Z,,,,not measured,,True
11,OpenEndedSeg_4,4,OpenEndedSeg_4,2,8,,,,,,,2,,,,,,,,,,,,,,,,,,,,,,,,,,,,,,,,,,,,"""times=1642724466914;1642724485720;1642724502343;1642724506358;1642724515919---values=;18802;35425;39440;49001""","""times=1642724466915;1642724555832;1642724567744;1642724584768;1642724592559---values=;22315;34227;51251;59042""",,,,,,,,,,,,8B,,,,,,,,,,,,,,,,yes,,,2022-01-21T00:37:42.000Z,357468,group_7,396364,Prediction1/Open4,1,2022-01-20T23:50:42.000Z,,,,not measured,,True
11,OpenEndedSeg_4,4,OpenEndedSeg_4,3,1,,,,,,,1,,,,,,,,,,,,,,,,,,,,,,,,,,,,,,,,,,,,"""times=1642724600588;1642724626192;1642724637775---values=;25600;37183""","""times=1642724600588;1642724678216;1642724686624;1642724693072;1642724702832---values=;10709;19117;25565;35325""",,,,,,,,,,,,intact,,,,,,,,,,,,,,,,yes,,,2022-01-21T00:37:42.000Z,357468,group_7,396364,Prediction1/Open4,1,2022-01-20T23:50:42.000Z,,,,not measured,,True
11,OpenEndedSeg_4,4,OpenEndedSeg_4,4,3,,,,,,,1,,,,,,,,,,,,,,,,,,,,,,,,,,,,,,,,,,,,"""times=1642724734918;1642724746296;1642724755031;1642724761328;1642724782608---values=;11375;20110;26407;47687""","""times=1642724734918;1642724819104;1642724827998;1642724835057;1642724842760;1642724851976---values=;21176;30070;37129;44832;54048""",,,,,,,,,,,,intact,,,,,,,,,,,,,,,,yes,,,2022-01-21T00:37:42.000Z,357468,group_7,396364,Prediction1/Open4,1,2022-01-20T23:50:42.000Z,,,,not measured,,True
11,OpenEndedSeg_4,4,OpenEndedSeg_4,5,7,,,,,,,2,,,,,,,,,,,,,,,,,,,,,,,,,,,,,,,,,,,,"""times=1642724861353;1642724872177;1642724876496;1642724891801;1642724896440;1642724915800---values=;10821;15140;30445;35084;54444""","""times=1642724861353;1642724929055;1642724945408;1642724954207;1642724965928;1642724980920---values=;1189;17542;26341;38062;53054""",,,,,,,,,,,,8B,,,,,,,,,,,,,,,,yes,,,2022-01-21T00:37:42.000Z,357468,group_7,396364,Prediction1/Open4,1,2022-01-20T23:50:42.000Z,,,,not measured,,True
11,OpenEndedSeg_4,4,OpenEndedSeg_4,6,14,,,,,,,4,,,,,,,,,,,,,,,,,,,,,,,,,,,,,,,,,,,,"""times=1642724994795;1642725007168;1642725012025;1642725021553;1642725032967;1642725060303---values=;12370;17227;26755;38169;65505""","""times=1642724994795;1642725068865;1642725077554;1642725078968;1642725088657;1642725098689;1642725106607;1642725117695;1642725125846---values=;6890;15580;16994;26682;36715;44633;55721;63872""",,,,,,,,,,,,1B,,,,,,,,,,,,,,,,yes,,,2022-01-21T00:37:42.000Z,357468,group_7,396364,Prediction1/Open4,1,2022-01-20T23:50:42.000Z,,,,not measured,,True
11,OpenEndedSeg_4,4,OpenEndedSeg_4,7,16,,,,,,,4,,,,,,,,,,,,,,,,,,,,,,,,,,,,,,,,,,,,"""times=1642725129580;1642725138952;1642725143423;1642725152159;1642725162919;1642725179289;1642725187631---values=;9368;13839;22575;33335;49705;58047""","""times=1642725129580;1642725194382;1642725208199;1642725216727;1642725236520;1642725250848---values=;1736;15553;24081;43874;58202""",,,,,,,,,,,,1B,,,,,,,,,,,,,,,,yes,,,2022-01-21T00:37:42.000Z,357468,group_7,396364,Prediction1/Open4,1,2022-01-20T23:50:42.000Z,,,,not measured,,True
11,OpenEndedSeg_4,4,OpenEndedSeg_4,8,12,,,,,,,3,,,,,,,,,,,,,,,,,,,,,,,,,,,,,,,,,,,,"""times=1642725256194;1642725261760;1642725265327;1642725272855;1642725279679;1642725285983;1642725290303;1642725304416;1642725310191---values=;5562;9128;16657;23481;29785;34105;48218;53992""","""times=1642725256194;1642725324807;1642725328160;1642725337777;1642725342552;1642725344385;1642725351992;1642725372570---values=;5556;8909;18526;23301;25134;32741;53319""",,,,,,,,,,,,2B,,,,,,,,,,,,,,,,yes,,,2022-01-21T00:37:42.000Z,357468,group_7,396364,Prediction1/Open4,1,2022-01-20T23:50:42.000Z,,,,not measured,,True
11,OpenEndedSeg_4,3,Ready?,1,1,,,,,,,1,,,,,,,,,,,,,,,,,,,,,,,,,,,,,,,,,,,,,,,,,,,,,,,,,,,,,,,,,,,,,,,,,yes,,,2022-01-21T00:37:42.000Z,357468,group_7,396364,Prediction1/Open4,1,2022-01-20T23:50:42.000Z,,,,not measured,,True
11,OpenEndedSeg_4,2,Practice_OpenEnded,1,1,,,,,,,1,,,,,,,,,,,,,,,,,,,,,,,,,,,,,,,,,,,,,"""times=1642724266470---values=16598""",,,,,,,,,,,,,,,,,,,,,,,,,,,,yes,,,2022-01-21T00:37:42.000Z,357468,group_7,396364,Prediction1/Open4,1,2022-01-20T23:50:42.000Z,,,,not measured,,True
11,OpenEndedSeg_4,1,Instructions_Open,1,1,,,,,,,1,,,,,,,,,,,,,,,,,,,,,,,,,,,,,,,,,,,,,,,,,,,,,,,,,,,,,,,,,,,,,,,,,yes,,,2022-01-21T00:37:42.000Z,357468,group_7,396364,Prediction1/Open4,1,2022-01-20T23:50:42.000Z,,,,not measured,,True
9,Prediction 1,4,Prediction_1,1,42,,,,,Second,2_1B_prediction_2.mp3,5,,,,,,correct_first,,,,,,,,,,,,,,,,,,,,,,,,,,,,,,,,,,,Incorrect,,,,455.0,,,,,,,,,,,1B,,,,,,,,,yes,,,2022-01-21T00:37:42.000Z,357468,group_7,396364,Prediction1/Open4,1,2022-01-20T23:50:42.000Z,,,,not measured,,True
9,Prediction 1,4,Prediction_1,2,39,,,,,Second,3_2B_prediction_4.mp3,4,,,,,,incorrect_first,,,,,,,,,,,,,,,,,,,,,,,,,,,,,,,,,,,Correct,,,,755.0,,,,,,,,,,,2B,,,,,,,,,yes,,,2022-01-21T00:37:42.000Z,357468,group_7,396364,Prediction1/Open4,1,2022-01-20T23:50:42.000Z,,,,not measured,,True
9,Prediction 1,4,Prediction_1,3,14,,,,,Second,2_8B_prediction_4.mp3,2,,,,,,incorrect_first,,,,,,,,,,,,,,,,,,,,,,,,,,,,,,,,,,,Correct,,,,532.0,,,,,,,,,,,8B,,,,,,,,,yes,,,2022-01-21T00:37:42.000Z,357468,group_7,396364,Prediction1/Open4,1,2022-01-20T23:50:42.000Z,,,,not measured,,True
9,Prediction 1,4,Prediction_1,4,10,,,,,Second,3_8B_prediction_5.mp3,1,,,,,,correct_first,,,,,,,,,,,,,,,,,,,,,,,,,,,,,,,,,,,Incorrect,,,,2146.0,,,,,,,,,,,8B,,,,,,,,,yes,,,2022-01-21T00:37:42.000Z,357468,group_7,396364,Prediction1/Open4,1,2022-01-20T23:50:42.000Z,,,,not measured,,True
9,Prediction 1,4,Prediction_1,5,9,,,,,Second,3_8B_prediction_4.mp3,1,,,,,,correct_first,,,,,,,,,,,,,,,,,,,,,,,,,,,,,,,,,,,Incorrect,,,,2570.0,,,,,,,,,,,8B,,,,,,,,,yes,,,2022-01-21T00:37:42.000Z,357468,group_7,396364,Prediction1/Open4,1,2022-01-20T23:50:42.000Z,,,,not measured,,True
9,Prediction 1,4,Prediction_1,6,40,,,,,Second,3_2B_prediction_5.mp3,4,,,,,,incorrect_first,,,,,,,,,,,,,,,,,,,,,,,,,,,,,,,,,,,Correct,,,,482.0,,,,,,,,,,,2B,,,,,,,,,yes,,,2022-01-21T00:37:42.000Z,357468,group_7,396364,Prediction1/Open4,1,2022-01-20T23:50:42.000Z,,,,not measured,,True
9,Prediction 1,4,Prediction_1,7,47,,,,,First,3_1B_prediction_2.mp3,5,,,,,,correct_first,,,,,,,,,,,,,,,,,,,,,,,,,,,,,,,,,,,Correct,,,,563.0,,,,,,,,,,,1B,,,,,,,,,yes,,,2022-01-21T00:37:42.000Z,357468,group_7,396364,Prediction1/Open4,1,2022-01-20T23:50:42.000Z,,,,not measured,,True
9,Prediction 1,4,Prediction_1,8,26,,,,,First,3_2B_prediction_1.mp3,3,,,,,,correct_first,,,,,,,,,,,,,,,,,,,,,,,,,,,,,,,,,,,Correct,,,,400.0,,,,,,,,,,,2B,,,,,,,,,yes,,,2022-01-21T00:37:42.000Z,357468,group_7,396364,Prediction1/Open4,1,2022-01-20T23:50:42.000Z,,,,not measured,,True
9,Prediction 1,4,Prediction_1,9,43,,,,,Second,2_1B_prediction_3.mp3,5,,,,,,correct_first,,,,,,,,,,,,,,,,,,,,,,,,,,,,,,,,,,,Incorrect,,,,2135.0,,,,,,,,,,,1B,,,,,,,,,yes,,,2022-01-21T00:37:42.000Z,357468,group_7,396364,Prediction1/Open4,1,2022-01-20T23:50:42.000Z,,,,not measured,,True
9,Prediction 1,4,Prediction_1,10,49,,,,,First,3_1B_prediction_4.mp3,5,,,,,,correct_first,,,,,,,,,,,,,,,,,,,,,,,,,,,,,,,,,,,Correct,,,,1851.0,,,,,,,,,,,1B,,,,,,,,,yes,,,2022-01-21T00:37:42.000Z,357468,group_7,396364,Prediction1/Open4,1,2022-01-20T23:50:42.000Z,,,,not measured,,True
9,Prediction 1,4,Prediction_1,11,37,,,,,First,3_2B_prediction_2.mp3,4,,,,,,incorrect_first,,,,,,,,,,,,,,,,,,,,,,,,,,,,,,,,,,,Incorrect,,,,2034.0,,,,,,,,,,,2B,,,,,,,,,yes,,,2022-01-21T00:37:42.000Z,357468,group_7,396364,Prediction1/Open4,1,2022-01-20T23:50:42.000Z,,,,not measured,,True
9,Prediction 1,4,Prediction_1,12,1,,,,,First,2_8B_prediction_1.mp3,1,,,,,,correct_first,,,,,,,,,,,,,,,,,,,,,,,,,,,,,,,,,,,Correct,,,,3210.0,,,,,,,,,,,8B,,,,,,,,,yes,,,2022-01-21T00:37:42.000Z,357468,group_7,396364,Prediction1/Open4,1,2022-01-20T23:50:42.000Z,,,,not measured,,True
9,Prediction 1,4,Prediction_1,13,23,,,,,Second,2_2B_prediction_3.mp3,3,,,,,,correct_first,,,,,,,,,,,,,,,,,,,,,,,,,,,,,,,,,,,Incorrect,,,,2063.0,,,,,,,,,,,2B,,,,,,,,,yes,,,2022-01-21T00:37:42.000Z,357468,group_7,396364,Prediction1/Open4,1,2022-01-20T23:50:42.000Z,,,,not measured,,True
9,Prediction 1,4,Prediction_1,14,12,,,,,First,2_8B_prediction_2.mp3,2,,,,,,incorrect_first,,,,,,,,,,,,,,,,,,,,,,,,,,,,,,,,,,,Incorrect,,,,953.0,,,,,,,,,,,8B,,,,,,,,,yes,,,2022-01-21T00:37:42.000Z,357468,group_7,396364,Prediction1/Open4,1,2022-01-20T23:50:42.000Z,,,,not measured,,True
9,Prediction 1,4,Prediction_1,15,17,,,,,Second,3_8B_prediction_10.mp3,2,,,,,,incorrect_first,,,,,,,,,,,,,,,,,,,,,,,,,,,,,,,,,,,Correct,,,,564.0,,,,,,,,,,,8B,,,,,,,,,yes,,,2022-01-21T00:37:42.000Z,357468,group_7,396364,Prediction1/Open4,1,2022-01-20T23:50:42.000Z,,,,not measured,,True
9,Prediction 1,4,Prediction_1,16,5,,,,,Second,2_8B_prediction_5.mp3,1,,,,,,correct_first,,,,,,,,,,,,,,,,,,,,,,,,,,,,,,,,,,,Incorrect,,,,827.0,,,,,,,,,,,8B,,,,,,,,,yes,,,2022-01-21T00:37:42.000Z,357468,group_7,396364,Prediction1/Open4,1,2022-01-20T23:50:42.000Z,,,,not measured,,True
9,Prediction 1,4,Prediction_1,17,48,,,,,First,3_1B_prediction_3.mp3,5,,,,,,correct_first,,,,,,,,,,,,,,,,,,,,,,,,,,,,,,,,,,,Correct,,,,2186.0,,,,,,,,,,,1B,,,,,,,,,yes,,,2022-01-21T00:37:42.000Z,357468,group_7,396364,Prediction1/Open4,1,2022-01-20T23:50:42.000Z,,,,not measured,,True
9,Prediction 1,4,Prediction_1,18,32,,,,,Second,2_2B_prediction_2.mp3,4,,,,,,incorrect_first,,,,,,,,,,,,,,,,,,,,,,,,,,,,,,,,,,,Correct,,,,3868.0,,,,,,,,,,,2B,,,,,,,,,yes,,,2022-01-21T00:37:42.000Z,357468,group_7,396364,Prediction1/Open4,1,2022-01-20T23:50:42.000Z,,,,not measured,,True
9,Prediction 1,4,Prediction_1,19,16,,,,,First,3_8B_prediction_1.mp3,2,,,,,,incorrect_first,,,,,,,,,,,,,,,,,,,,,,,,,,,,,,,,,,,Incorrect,,,,833.0,,,,,,,,,,,8B,,,,,,,,,yes,,,2022-01-21T00:37:42.000Z,357468,group_7,396364,Prediction1/Open4,1,2022-01-20T23:50:42.000Z,,,,not measured,,True
9,Prediction 1,4,Prediction_1,20,38,,,,,Second,3_2B_prediction_3.mp3,4,,,,,,incorrect_first,,,,,,,,,,,,,,,,,,,,,,,,,,,,,,,,,,,Correct,,,,706.0,,,,,,,,,,,2B,,,,,,,,,yes,,,2022-01-21T00:37:42.000Z,357468,group_7,396364,Prediction1/Open4,1,2022-01-20T23:50:42.000Z,,,,not measured,,True
9,Prediction 1,4,Prediction_1,21,60,,,,,First,3_1B_prediction_5.mp3,6,,,,,,incorrect_first,,,,,,,,,,,,,,,,,,,,,,,,,,,,,,,,,,,Incorrect,,,,630.0,,,,,,,,,,,1B,,,,,,,,,yes,,,2022-01-21T00:37:42.000Z,357468,group_7,396364,Prediction1/Open4,1,2022-01-20T23:50:42.000Z,,,,not measured,,True
9,Prediction 1,4,Prediction_1,22,46,,,,,First,3_1B_prediction_1.mp3,5,,,,,,correct_first,,,,,,,,,,,,,,,,,,,,,,,,,,,,,,,,,,,Correct,,,,386.0,,,,,,,,,,,1B,,,,,,,,,yes,,,2022-01-21T00:37:42.000Z,357468,group_7,396364,Prediction1/Open4,1,2022-01-20T23:50:42.000Z,,,,not measured,,True
9,Prediction 1,4,Prediction_1,23,21,,,,,First,2_2B_prediction_1.mp3,3,,,,,,correct_first,,,,,,,,,,,,,,,,,,,,,,,,,,,,,,,,,,,Correct,,,,3114.0,,,,,,,,,,,2B,,,,,,,,,yes,,,2022-01-21T00:37:42.000Z,357468,group_7,396364,Prediction1/Open4,1,2022-01-20T23:50:42.000Z,,,,not measured,,True
9,Prediction 1,4,Prediction_1,24,34,,,,,First,2_2B_prediction_4.mp3,4,,,,,,incorrect_first,,,,,,,,,,,,,,,,,,,,,,,,,,,,,,,,,,,Incorrect,,,,2340.0,,,,,,,,,,,2B,,,,,,,,,yes,,,2022-01-21T00:37:42.000Z,357468,group_7,396364,Prediction1/Open4,1,2022-01-20T23:50:42.000Z,,,,not measured,,True
9,Prediction 1,4,Prediction_1,25,55,,,,,First,2_1B_prediction_5.mp3,6,,,,,,incorrect_first,,,,,,,,,,,,,,,,,,,,,,,,,,,,,,,,,,,Incorrect,,,,1846.0,,,,,,,,,,,1B,,,,,,,,,yes,,,2022-01-21T00:37:42.000Z,357468,group_7,396364,Prediction1/Open4,1,2022-01-20T23:50:42.000Z,,,,not measured,,True
9,Prediction 1,4,Prediction_1,26,41,,,,,Second,2_1B_prediction_1.mp3,5,,,,,,correct_first,,,,,,,,,,,,,,,,,,,,,,,,,,,,,,,,,,,Incorrect,,,,691.0,,,,,,,,,,,1B,,,,,,,,,yes,,,2022-01-21T00:37:42.000Z,357468,group_7,396364,Prediction1/Open4,1,2022-01-20T23:50:42.000Z,,,,not measured,,True
9,Prediction 1,4,Prediction_1,27,13,,,,,First,2_8B_prediction_3.mp3,2,,,,,,incorrect_first,,,,,,,,,,,,,,,,,,,,,,,,,,,,,,,,,,,Incorrect,,,,1382.0,,,,,,,,,,,8B,,,,,,,,,yes,,,2022-01-21T00:37:42.000Z,357468,group_7,396364,Prediction1/Open4,1,2022-01-20T23:50:42.000Z,,,,not measured,,True
9,Prediction 1,4,Prediction_1,28,44,,,,,First,2_1B_prediction_4.mp3,5,,,,,,correct_first,,,,,,,,,,,,,,,,,,,,,,,,,,,,,,,,,,,Correct,,,,1290.0,,,,,,,,,,,1B,,,,,,,,,yes,,,2022-01-21T00:37:42.000Z,357468,group_7,396364,Prediction1/Open4,1,2022-01-20T23:50:42.000Z,,,,not measured,,True
9,Prediction 1,4,Prediction_1,29,35,,,,,Second,2_2B_prediction_5.mp3,4,,,,,,incorrect_first,,,,,,,,,,,,,,,,,,,,,,,,,,,,,,,,,,,Correct,,,,1798.0,,,,,,,,,,,2B,,,,,,,,,yes,,,2022-01-21T00:37:42.000Z,357468,group_7,396364,Prediction1/Open4,1,2022-01-20T23:50:42.000Z,,,,not measured,,True
9,Prediction 1,4,Prediction_1,30,18,,,,,Second,3_8B_prediction_3.mp3,2,,,,,,incorrect_first,,,,,,,,,,,,,,,,,,,,,,,,,,,,,,,,,,,Correct,,,,1287.0,,,,,,,,,,,8B,,,,,,,,,yes,,,2022-01-21T00:37:42.000Z,357468,group_7,396364,Prediction1/Open4,1,2022-01-20T23:50:42.000Z,,,,not measured,,True
9,Prediction 1,3,Ready?,1,1,,,,,,,1,,,,,,,,,,,,,,,,,,,,,,,,,,,,,,,,,,,,,,,,,,,,,,,,,,,,,,,,,,,,,,,,,yes,,,2022-01-21T00:37:42.000Z,357468,group_7,396364,Prediction1/Open4,1,2022-01-20T23:50:42.000Z,,,,not measured,,True
9,Prediction 1,2,Practice_Prediction,1,4,,,,,,,2,,,,,,,,,,incorrect_correct,,,,,,,,,,,,,,,,,,,,,,,,,,,,,,,,,,,,,,,,,,,,,,,,,,,,,,,yes,,,2022-01-21T00:37:42.000Z,357468,group_7,396364,Prediction1/Open4,1,2022-01-20T23:50:42.000Z,,,,not measured,,True
9,Prediction 1,2,Practice_Prediction,2,3,,,,,First,,1,,,,,,,,,,correct_incorrect,,,,,,,,,,,,,,,,,,,,,,,,,,,,,,,Correct,,,,733.0,,,,,,,,,,,,,,,,,,,,yes,,,2022-01-21T00:37:42.000Z,357468,group_7,396364,Prediction1/Open4,1,2022-01-20T23:50:42.000Z,,,,not measured,,True
9,Prediction 1,2,Practice_Prediction,3,2,,,,,First,,1,,,,,,,,,,correct_incorrect,,,,,,,,,,,,,,,,,,,,,,,,,,,,,,,Correct,,,,2368.0,,,,,,,,,,,,,,,,,,,,yes,,,2022-01-21T00:37:42.000Z,357468,group_7,396364,Prediction1/Open4,1,2022-01-20T23:50:42.000Z,,,,not measured,,True
9,Prediction 1,1,Instructions_Prediction,1,1,,,,,,,1,,,,,,,,,,,,,,,,,,,,,,,,,,,,,,,,,,,,,,,,,,,,,,,,,,,,,,,,,,,,,,,,,yes,,,2022-01-21T00:37:42.000Z,357468,group_7,396364,Prediction1/Open4,1,2022-01-20T23:50:42.000Z,,,,not measured,,True
7,AP_Screen,3,imported_AP_eval,1,1,,,,,,,1,,,,,,,,,,,,,,,,,,,,,,,,,,,,,,,0.0,,,,,,,,,,,,,,,,,,,,,,,,,,,,,,,,,,yes,,,2022-01-21T00:37:42.000Z,357468,group_7,396364,Prediction1/Open4,1,2022-01-20T23:50:42.000Z,,,,not measured,,True
7,AP_Screen,2,imported_AP_headphone test,1,6,,,,,,,6,,,,,,,,,,,,three,,,,,,,,,,,,,,,1.0,,,,0.0,,,,,,,,,,,,,,,,,,,,,,,,,,,,,,,,O_I_S,,yes,,,2022-01-21T00:37:42.000Z,357468,group_7,396364,Prediction1/Open4,1,2022-01-20T23:50:42.000Z,,,,not measured,,True
7,AP_Screen,2,imported_AP_headphone test,2,5,,,,,,,5,,,,,,,,,,,,two,,,,,,,,,,,,,,,1.0,,,,0.0,,,,,,,,,,,,,,,,,,,,,,,,,,,,,,,,O_S_I,,yes,,,2022-01-21T00:37:42.000Z,357468,group_7,396364,Prediction1/Open4,1,2022-01-20T23:50:42.000Z,,,,not measured,,True
7,AP_Screen,2,imported_AP_headphone test,3,2,,,,,,,2,,,,,,,,,,,,two,,,,,,,,,,,,,,,1.0,,,,0.0,,,,,,,,,,,,,,,,,,,,,,,,,,,,,,,,I_S_O,,yes,,,2022-01-21T00:37:42.000Z,357468,group_7,396364,Prediction1/Open4,1,2022-01-20T23:50:42.000Z,,,,not measured,,True
7,AP_Screen,2,imported_AP_headphone test,4,4,,,,,,,4,,,,,,,,,,,,one,,,,,,,,,,,,,,,1.0,,,,0.0,,,,,,,,,,,,,,,,,,,,,,,,,,,,,,,,S_I_O,,yes,,,2022-01-21T00:37:42.000Z,357468,group_7,396364,Prediction1/Open4,1,2022-01-20T23:50:42.000Z,,,,not measured,,True
7,AP_Screen,2,imported_AP_headphone test,5,1,,,,,,,1,,,,,,,,,,,,three,,,,,,,,,,,,,,,1.0,,,,0.0,,,,,,,,,,,,,,,,,,,,,,,,,,,,,,,,I_O_S,,yes,,,2022-01-21T00:37:42.000Z,357468,group_7,396364,Prediction1/Open4,1,2022-01-20T23:50:42.000Z,,,,not measured,,True
7,AP_Screen,2,imported_AP_headphone test,6,3,,,,,,,3,,,,,,,,,,,,one,,,,,,,,,,,,,,,1.0,,,,0.0,,,,,,,,,,,,,,,,,,,,,,,,,,,,,,,,S_O_I,,yes,,,2022-01-21T00:37:42.000Z,357468,group_7,396364,Prediction1/Open4,1,2022-01-20T23:50:42.000Z,,,,not measured,,True
7,AP_Screen,1,imported_AP_instruction,1,1,,,,,,,1,,,,,,,,,,,,,,,,,,,,,,,,,,,,,,,,,,,,,,,,,,,,,,,,,,,,,,,,,,,,,,,,,yes,,,2022-01-21T00:37:42.000Z,357468,group_7,396364,Prediction1/Open4,1,2022-01-20T23:50:42.000Z,,,,not measured,,True
6,HP_Screen,3,imported_HP Evaluation,1,1,,,,,,,1,,,,,,,,,,,,,,0.0,,,,,,,,,,,,,,,,,,,,,,,,,,,,,,,,,,,,,,,,,,,,,,,,,,,yes,,,2022-01-21T00:37:42.000Z,357468,group_7,396364,Prediction1/Open4,1,2022-01-20T23:50:42.000Z,,,,not measured,,True
6,HP_Screen,2,imported_HP Trials,1,1,,,,,,,1,,,,,,,,,,,,,,0.0,,,"""times=;;;;;;;;;;;;;;;;;---values=;;;;;;;;;;;;;;;;;""",hp2.2.flac,,,,,,,,,,,,,,,,,,,,,,,choice 2,,,,,,,,,,,,,,,,,,,hp2.2.flac,,,,,yes,,,2022-01-21T00:37:42.000Z,357468,group_7,396364,Prediction1/Open4,1,2022-01-20T23:50:42.000Z,,,,not measured,,True
6,HP_Screen,2,imported_HP Trials,2,3,,,,,,,1,,,,,,,,,,,,,,0.0,,,"""times=;;;;;;;;;;;;;;;;;---values=;;;;;;;;;;;;;;;;;""",hp1.2.flac,,,,,,,,,,,,,,,,,,,,,,,choice 2,,,,,,,,,,,,,,,,,,,hp1.2.flac,,,,,yes,,,2022-01-21T00:37:42.000Z,357468,group_7,396364,Prediction1/Open4,1,2022-01-20T23:50:42.000Z,,,,not measured,,True
6,HP_Screen,2,imported_HP Trials,3,6,,,,,,,1,,,,,,,,,,,,,,0.0,,,"""times=;;;;;;;;;;;;;;;;;---values=;;;;;;;;;;;;;;;;;""",hp3.1.flac,,,,,,,,,,,,,,,,,,,,,,,choice 1,,,,,,,,,,,,,,,,,,,hp3.1.flac,,,,,yes,,,2022-01-21T00:37:42.000Z,357468,group_7,396364,Prediction1/Open4,1,2022-01-20T23:50:42.000Z,,,,not measured,,True
6,HP_Screen,2,imported_HP Trials,4,5,,,,,,,1,,,,,,,,,,,,,,0.0,,,"""times=;;;;;;;;;;;;;;;;;---values=;;;;;;;;;;;;;;;;;""",hp1.3.flac,,,,,,,,,,,,,,,,,,,,,,,choice 3,,,,,,,,,,,,,,,,,,,hp1.3.flac,,,,,yes,,,2022-01-21T00:37:42.000Z,357468,group_7,396364,Prediction1/Open4,1,2022-01-20T23:50:42.000Z,,,,not measured,,True
6,HP_Screen,2,imported_HP Trials,5,4,,,,,,,1,,,,,,,,,,,,,,0.0,,,"""times=;;;;;;;;;;;;;;;;;---values=;;;;;;;;;;;;;;;;;""",hp6.3.flac,,,,,,,,,,,,,,,,,,,,,,,choice 3,,,,,,,,,,,,,,,,,,,hp6.3.flac,,,,,yes,,,2022-01-21T00:37:42.000Z,357468,group_7,396364,Prediction1/Open4,1,2022-01-20T23:50:42.000Z,,,,not measured,,True
6,HP_Screen,2,imported_HP Trials,6,2,,,,,,,1,,,,,,,,,,,,,,0.0,,,"""times=;;;;;;;;;;;;;;;;;---values=;;;;;;;;;;;;;;;;;""",hp4.1.flac,,,,,,,,,,,,,,,,,,,,,,,choice 1,,,,,,,,,,,,,,,,,,,hp4.1.flac,,,,,yes,,,2022-01-21T00:37:42.000Z,357468,group_7,396364,Prediction1/Open4,1,2022-01-20T23:50:42.000Z,,,,not measured,,True
6,HP_Screen,1,imported_HP Instructions,1,1,,,,,,,1,,,,,,,,,,,,,,,1.0,,,,,,,,,,,,,,,,,,,,,,,,,,,,,,,,,,,,,,,,,,,,,,,,,,yes,,,2022-01-21T00:37:42.000Z,357468,group_7,396364,Prediction1/Open4,1,2022-01-20T23:50:42.000Z,,,,not measured,,True
4,GenInstructPredOpen,1,InstructionsPredOpen,1,1,,,,,,,1,,,,,,,,,,,,,,,,,,,,,,,,,,,,,,,,,,,,,,,,,,,,,,,,,,,,,,,,,,,,,,,,,yes,,,2022-01-21T00:37:42.000Z,357468,group_7,396364,Prediction1/Open4,1,2022-01-20T23:50:42.000Z,,,,not measured,,True
2,Consent,1,Consent,1,1,,,,,,,1,,,,,,,,,,,,,,,,,,,,,,,,,,,,,,,,,,,,,,,,,,,,,,,,,,,,,,,,,,,,,,,,,yes,,,2022-01-21T00:37:42.000Z,357468,group_7,396364,Prediction1/Open4,1,2022-01-20T23:50:42.000Z,,,,not measured,,True
