Block_Nr,Block_Name,Task_Nr,Task_Name,Trial_Nr,Trial_Id,ab_pitch,age_range,answer,best_instru,choice,clip,Condition_Id,conditions,consent,correct_incorrect_m_2,correct_incorrect_m_3,correct_incorrect_mem_1,correct_incorrect_p_1,correct_incorrect_p_2,correct_incorrect_p_3,correct_incorrect_practice_m,correct_incorrect_practice_p,correctCount,decision,earworm,errorCount,exampleCount,familiarity,fileArray,filePick,Frequenc,genre,genre_3,genre_4,hour,imagery,imagery_2,Instr,isCorrect,listen_time,music_theory,name_instru,nrErrors,num_instru,participant_choice,participant_choice_2,participant_choice2,participant_spacePress,participant_spacePress2,played_notplayed,practice_catseg_scramble,relative_pitch,response,response_seg,response_seg2,response_Time2,responseTime,retestCount,scramble_cat_1,scramble_cat_3,scramble_cat_4,scramble_catseg_4,scramble_level,scramble_m_1,scramble_m_2,scramble_m_3,scramble_open_3,scramble_p_1,scramble_p_2,scramble_p_3,set1response,soundName,strategy,time_atClipStart1,toneSequence,always_fullscreen,completed,crowdsourcing_code,crowdsourcing_subj_id,end_time,exp_subject_id,group_name,rec_session_id,session_name,session_nr,start_time,subj_counter_global,subj_counter_per_group,subject_code,time_delay_offset,time_measure_std,unlocked
13,Post-Survey,1,Post-Survey,1,1,No,0.0,,alto,,,1,,,,,,,,,,,,,4.0,,,1.0,,,Occasionally,R&B,Gospel,Indie,0 hours,,3.0,0 years,,5 hours or more ,0 years,no instrument,,0.0,,,,,,option_1,,Yes,,,,,,,,,,,,,,,,,,,,,I sang along.,,,,yes,,,2022-01-20T23:10:22.000Z,357424,group_9,396300,Prediction3/Open2,1,2022-01-20T22:20:54.000Z,,,,not measured,,True
11,OpenEndedSeg_2,4,OpenEndedSeg_2,1,14,,,,,,,4,,,,,,,,,,,,,,,,,,,,,,,,,,,,,,,,,,,,,,,,,,,,,,,,,,,1B,,,,,,,,,,,,,,yes,,,2022-01-20T23:10:22.000Z,357424,group_9,396300,Prediction3/Open2,1,2022-01-20T22:20:54.000Z,,,,not measured,,True
11,OpenEndedSeg_2,4,OpenEndedSeg_2,2,10,,,,,,,3,,,,,,,,,,,,,,,,,,,,,,,,,,,,,,,,,,,,"""times=1642719016582---values=8651""",,,,,,,,,,,,,,,2B,,,,,,,,,,,,,,yes,,,2022-01-20T23:10:22.000Z,357424,group_9,396300,Prediction3/Open2,1,2022-01-20T22:20:54.000Z,,,,not measured,,True
11,OpenEndedSeg_2,4,OpenEndedSeg_2,3,11,,,,,,,3,,,,,,,,,,,,,,,,,,,,,,,,,,,,,,,,,,,,"""times=1642719134322;1642719183757;1642719184367---values=;49432;50042""","""times=1642719198441---values=757""",,,,,,,,,,,,,,2B,,,,,,,,,,,,,,yes,,,2022-01-20T23:10:22.000Z,357424,group_9,396300,Prediction3/Open2,1,2022-01-20T22:20:54.000Z,,,,not measured,,True
11,OpenEndedSeg_2,4,OpenEndedSeg_2,4,1,,,,,,,1,,,,,,,,,,,,,,,,,,,,,,,,,,,,,,,,,,,,"""times=1642719261301---values=""","""times=1642719261301---values=""",,,,,,,,,,,,,,intact,,,,,,,,,,,,,,yes,,,2022-01-20T23:10:22.000Z,357424,group_9,396300,Prediction3/Open2,1,2022-01-20T22:20:54.000Z,,,,not measured,,True
11,OpenEndedSeg_2,4,OpenEndedSeg_2,5,16,,,,,,,4,,,,,,,,,,,,,,,,,,,,,,,,,,,,,,,,,,,,"""times=1642719437811---values=38569""",,,,,,,,,,,,,,,1B,,,,,,,,,,,,,,yes,,,2022-01-20T23:10:22.000Z,357424,group_9,396300,Prediction3/Open2,1,2022-01-20T22:20:54.000Z,,,,not measured,,True
11,OpenEndedSeg_2,4,OpenEndedSeg_2,6,5,,,,,,,2,,,,,,,,,,,,,,,,,,,,,,,,,,,,,,,,,,,,"""times=1642719521694---values=""",,,,,,,,,,,,,,,8B,,,,,,,,,,,,,,yes,,,2022-01-20T23:10:22.000Z,357424,group_9,396300,Prediction3/Open2,1,2022-01-20T22:20:54.000Z,,,,not measured,,True
11,OpenEndedSeg_2,4,OpenEndedSeg_2,7,7,,,,,,,2,,,,,,,,,,,,,,,,,,,,,,,,,,,,,,,,,,,,,,,,,,,,,,,,,,,8B,,,,,,,,,,,,,,yes,,,2022-01-20T23:10:22.000Z,357424,group_9,396300,Prediction3/Open2,1,2022-01-20T22:20:54.000Z,,,,not measured,,True
11,OpenEndedSeg_2,4,OpenEndedSeg_2,8,2,,,,,,,1,,,,,,,,,,,,,,,,,,,,,,,,,,,,,,,,,,,,,,,,,,,,,,,,,,,intact,,,,,,,,,,,,,,yes,,,2022-01-20T23:10:22.000Z,357424,group_9,396300,Prediction3/Open2,1,2022-01-20T22:20:54.000Z,,,,not measured,,True
11,OpenEndedSeg_2,3,Ready?,1,1,,,,,,,1,,,,,,,,,,,,,,,,,,,,,,,,,,,,,,,,,,,,,,,,,,,,,,,,,,,,,,,,,,,,,,,,,yes,,,2022-01-20T23:10:22.000Z,357424,group_9,396300,Prediction3/Open2,1,2022-01-20T22:20:54.000Z,,,,not measured,,True
11,OpenEndedSeg_2,2,Practice_OpenEnded,1,1,,,,,,,1,,,,,,,,,,,,,,,,,,,,,,,,,,,,,,,,,,,,,,,,,,,,,,,,,,,,,,,,,,,,,,,,,yes,,,2022-01-20T23:10:22.000Z,357424,group_9,396300,Prediction3/Open2,1,2022-01-20T22:20:54.000Z,,,,not measured,,True
11,OpenEndedSeg_2,1,Instructions_Open,1,1,,,,,,,1,,,,,,,,,,,,,,,,,,,,,,,,,,,,,,,,,,,,,,,,,,,,,,,,,,,,,,,,,,,,,,,,,yes,,,2022-01-20T23:10:22.000Z,357424,group_9,396300,Prediction3/Open2,1,2022-01-20T22:20:54.000Z,,,,not measured,,True
9,Prediction3,4,Prediction_3,1,48,,,,,Second,4_1B_prediction_7.mp3,5,,,,,,,,correct_left,,,,,,,,,,,,,,,,,,,,,,,,,,,,,,,,,Incorrect,,,,1297.0,,,,,,,,,,,,,1B,,,,,,,yes,,,2022-01-20T23:10:22.000Z,357424,group_9,396300,Prediction3/Open2,1,2022-01-20T22:20:54.000Z,,,,not measured,,True
9,Prediction3,4,Prediction_3,2,17,,,,,Second,4_8B_prediction_6.mp3,2,,,,,,,,incorrect_left,,,,,,,,,,,,,,,,,,,,,,,,,,,,,,,,,Correct,,,,1252.0,,,,,,,,,,,,,8B,,,,,,,yes,,,2022-01-20T23:10:22.000Z,357424,group_9,396300,Prediction3/Open2,1,2022-01-20T22:20:54.000Z,,,,not measured,,True
9,Prediction3,4,Prediction_3,3,12,,,,,First,3_8B_prediction_7.mp3,2,,,,,,,,incorrect_left,,,,,,,,,,,,,,,,,,,,,,,,,,,,,,,,,Incorrect,,,,1256.0,,,,,,,,,,,,,8B,,,,,,,yes,,,2022-01-20T23:10:22.000Z,357424,group_9,396300,Prediction3/Open2,1,2022-01-20T22:20:54.000Z,,,,not measured,,True
9,Prediction3,4,Prediction_3,4,36,,,,,Second,4_2B_prediction_5.mp3,4,,,,,,,,incorrect_left,,,,,,,,,,,,,,,,,,,,,,,,,,,,,,,,,Correct,,,,1817.0,,,,,,,,,,,,,2B,,,,,,,yes,,,2022-01-20T23:10:22.000Z,357424,group_9,396300,Prediction3/Open2,1,2022-01-20T22:20:54.000Z,,,,not measured,,True
9,Prediction3,4,Prediction_3,5,25,,,,,First,3_2B_prediction_10.mp3,3,,,,,,,,correct_left,,,,,,,,,,,,,,,,,,,,,,,,,,,,,,,,,Correct,,,,1066.0,,,,,,,,,,,,,2B,,,,,,,yes,,,2022-01-20T23:10:22.000Z,357424,group_9,396300,Prediction3/Open2,1,2022-01-20T22:20:54.000Z,,,,not measured,,True
9,Prediction3,4,Prediction_3,6,8,,,,,First,4_8B_prediction_7.mp3,1,,,,,,,,correct_left,,,,,,,,,,,,,,,,,,,,,,,,,,,,,,,,,Correct,,,,924.0,,,,,,,,,,,,,8B,,,,,,,yes,,,2022-01-20T23:10:22.000Z,357424,group_9,396300,Prediction3/Open2,1,2022-01-20T22:20:54.000Z,,,,not measured,,True
9,Prediction3,4,Prediction_3,7,44,,,,,First,3_1B_prediction_9.mp3,5,,,,,,,,correct_left,,,,,,,,,,,,,,,,,,,,,,,,,,,,,,,,,Correct,,,,1088.0,,,,,,,,,,,,,1B,,,,,,,yes,,,2022-01-20T23:10:22.000Z,357424,group_9,396300,Prediction3/Open2,1,2022-01-20T22:20:54.000Z,,,,not measured,,True
9,Prediction3,4,Prediction_3,8,51,,,,,Second,3_1B_prediction_6.mp3,6,,,,,,,,incorrect_left,,,,,,,,,,,,,,,,,,,,,,,,,,,,,,,,,Correct,,,,1188.0,,,,,,,,,,,,,1B,,,,,,,yes,,,2022-01-20T23:10:22.000Z,357424,group_9,396300,Prediction3/Open2,1,2022-01-20T22:20:54.000Z,,,,not measured,,True
9,Prediction3,4,Prediction_3,9,14,,,,,Second,3_8B_prediction_9.mp3,2,,,,,,,,incorrect_left,,,,,,,,,,,,,,,,,,,,,,,,,,,,,,,,,Correct,,,,1241.0,,,,,,,,,,,,,8B,,,,,,,yes,,,2022-01-20T23:10:22.000Z,357424,group_9,396300,Prediction3/Open2,1,2022-01-20T22:20:54.000Z,,,,not measured,,True
9,Prediction3,4,Prediction_3,10,5,,,,,First,3_8B_prediction_2.mp3,1,,,,,,,,correct_left,,,,,,,,,,,,,,,,,,,,,,,,,,,,,,,,,Correct,,,,1028.0,,,,,,,,,,,,,8B,,,,,,,yes,,,2022-01-20T23:10:22.000Z,357424,group_9,396300,Prediction3/Open2,1,2022-01-20T22:20:54.000Z,,,,not measured,,True
9,Prediction3,4,Prediction_3,11,21,,,,,First,3_2B_prediction_6.mp3,3,,,,,,,,correct_left,,,,,,,,,,,,,,,,,,,,,,,,,,,,,,,,,Correct,,,,804.0,,,,,,,,,,,,,2B,,,,,,,yes,,,2022-01-20T23:10:22.000Z,357424,group_9,396300,Prediction3/Open2,1,2022-01-20T22:20:54.000Z,,,,not measured,,True
9,Prediction3,4,Prediction_3,12,28,,,,,Second,4_2B_prediction_7.mp3,3,,,,,,,,correct_left,,,,,,,,,,,,,,,,,,,,,,,,,,,,,,,,,Incorrect,,,,1280.0,,,,,,,,,,,,,2B,,,,,,,yes,,,2022-01-20T23:10:22.000Z,357424,group_9,396300,Prediction3/Open2,1,2022-01-20T22:20:54.000Z,,,,not measured,,True
9,Prediction3,4,Prediction_3,13,23,,,,,Second,3_2B_prediction_8.mp3,3,,,,,,,,correct_left,,,,,,,,,,,,,,,,,,,,,,,,,,,,,,,,,Incorrect,,,,1058.0,,,,,,,,,,,,,2B,,,,,,,yes,,,2022-01-20T23:10:22.000Z,357424,group_9,396300,Prediction3/Open2,1,2022-01-20T22:20:54.000Z,,,,not measured,,True
9,Prediction3,4,Prediction_3,14,3,,,,,First,3_8B_prediction_8.mp3,1,,,,,,,,correct_left,,,,,,,,,,,,,,,,,,,,,,,,,,,,,,,,,Correct,,,,726.0,,,,,,,,,,,,,8B,,,,,,,yes,,,2022-01-20T23:10:22.000Z,357424,group_9,396300,Prediction3/Open2,1,2022-01-20T22:20:54.000Z,,,,not measured,,True
9,Prediction3,4,Prediction_3,15,37,,,,,First,4_2B_prediction_6.mp3,4,,,,,,,,incorrect_left,,,,,,,,,,,,,,,,,,,,,,,,,,,,,,,,,Incorrect,,,,1446.0,,,,,,,,,,,,,2B,,,,,,,yes,,,2022-01-20T23:10:22.000Z,357424,group_9,396300,Prediction3/Open2,1,2022-01-20T22:20:54.000Z,,,,not measured,,True
9,Prediction3,4,Prediction_3,16,50,,,,,First,4_8B_prediction_9.mp3,5,,,,,,,,correct_left,,,,,,,,,,,,,,,,,,,,,,,,,,,,,,,,,Correct,,,,1066.0,,,,,,,,,,,,,1B,,,,,,,yes,,,2022-01-20T23:10:22.000Z,357424,group_9,396300,Prediction3/Open2,1,2022-01-20T22:20:54.000Z,,,,not measured,,True
9,Prediction3,4,Prediction_3,17,34,,,,,Second,3_2B_prediction_9.mp3,4,,,,,,,,incorrect_left,,,,,,,,,,,,,,,,,,,,,,,,,,,,,,,,,Correct,,,,1439.0,,,,,,,,,,,,,2B,,,,,,,yes,,,2022-01-20T23:10:22.000Z,357424,group_9,396300,Prediction3/Open2,1,2022-01-20T22:20:54.000Z,,,,not measured,,True
9,Prediction3,4,Prediction_3,18,10,,,,,First,4_8B_prediction_9.mp3,1,,,,,,,,correct_left,,,,,,,,,,,,,,,,,,,,,,,,,,,,,,,,,Correct,,,,871.0,,,,,,,,,,,,,8B,,,,,,,yes,,,2022-01-20T23:10:22.000Z,357424,group_9,396300,Prediction3/Open2,1,2022-01-20T22:20:54.000Z,,,,not measured,,True
9,Prediction3,4,Prediction_3,19,39,,,,,Second,4_2B_prediction_8.mp3,4,,,,,,,,incorrect_left,,,,,,,,,,,,,,,,,,,,,,,,,,,,,,,,,Correct,,,,875.0,,,,,,,,,,,,,2B,,,,,,,yes,,,2022-01-20T23:10:22.000Z,357424,group_9,396300,Prediction3/Open2,1,2022-01-20T22:20:54.000Z,,,,not measured,,True
9,Prediction3,4,Prediction_3,20,9,,,,,Second,4_8B_prediction_8.mp3,1,,,,,,,,correct_left,,,,,,,,,,,,,,,,,,,,,,,,,,,,,,,,,Incorrect,,,,796.0,,,,,,,,,,,,,8B,,,,,,,yes,,,2022-01-20T23:10:22.000Z,357424,group_9,396300,Prediction3/Open2,1,2022-01-20T22:20:54.000Z,,,,not measured,,True
9,Prediction3,4,Prediction_3,21,57,,,,,First,4_1B_prediction_6.mp3,6,,,,,,,,incorrect_left,,,,,,,,,,,,,,,,,,,,,,,,,,,,,,,,,Incorrect,,,,862.0,,,,,,,,,,,,,1B,,,,,,,yes,,,2022-01-20T23:10:22.000Z,357424,group_9,396300,Prediction3/Open2,1,2022-01-20T22:20:54.000Z,,,,not measured,,True
9,Prediction3,4,Prediction_3,22,56,,,,,First,4_1B_prediction_5.mp3,6,,,,,,,,incorrect_left,,,,,,,,,,,,,,,,,,,,,,,,,,,,,,,,,Incorrect,,,,904.0,,,,,,,,,,,,,1B,,,,,,,yes,,,2022-01-20T23:10:22.000Z,357424,group_9,396300,Prediction3/Open2,1,2022-01-20T22:20:54.000Z,,,,not measured,,True
9,Prediction3,4,Prediction_3,23,52,,,,,Second,3_1B_prediction_7.mp3,6,,,,,,,,incorrect_left,,,,,,,,,,,,,,,,,,,,,,,,,,,,,,,,,Correct,,,,1008.0,,,,,,,,,,,,,1B,,,,,,,yes,,,2022-01-20T23:10:22.000Z,357424,group_9,396300,Prediction3/Open2,1,2022-01-20T22:20:54.000Z,,,,not measured,,True
9,Prediction3,4,Prediction_3,24,59,,,,,Second,4_1B_prediction_8.mp3,6,,,,,,,,incorrect_left,,,,,,,,,,,,,,,,,,,,,,,,,,,,,,,,,Correct,,,,590.0,,,,,,,,,,,,,1B,,,,,,,yes,,,2022-01-20T23:10:22.000Z,357424,group_9,396300,Prediction3/Open2,1,2022-01-20T22:20:54.000Z,,,,not measured,,True
9,Prediction3,4,Prediction_3,25,22,,,,,First,3_2B_prediction_7.mp3,3,,,,,,,,correct_left,,,,,,,,,,,,,,,,,,,,,,,,,,,,,,,,,Correct,,,,962.0,,,,,,,,,,,,,2B,,,,,,,yes,,,2022-01-20T23:10:22.000Z,357424,group_9,396300,Prediction3/Open2,1,2022-01-20T22:20:54.000Z,,,,not measured,,True
9,Prediction3,4,Prediction_3,26,53,,,,,First,3_1B_prediction_8.mp3,6,,,,,,,,incorrect_left,,,,,,,,,,,,,,,,,,,,,,,,,,,,,,,,,Incorrect,,,,1614.0,,,,,,,,,,,,,1B,,,,,,,yes,,,2022-01-20T23:10:22.000Z,357424,group_9,396300,Prediction3/Open2,1,2022-01-20T22:20:54.000Z,,,,not measured,,True
9,Prediction3,4,Prediction_3,27,40,,,,,Second,4_2B_prediction_9.mp3,4,,,,,,,,incorrect_left,,,,,,,,,,,,,,,,,,,,,,,,,,,,,,,,,Correct,,,,816.0,,,,,,,,,,,,,2B,,,,,,,yes,,,2022-01-20T23:10:22.000Z,357424,group_9,396300,Prediction3/Open2,1,2022-01-20T22:20:54.000Z,,,,not measured,,True
9,Prediction3,4,Prediction_3,28,45,,,,,Second,3_1B_prediction_10.mp3,5,,,,,,,,correct_left,,,,,,,,,,,,,,,,,,,,,,,,,,,,,,,,,Incorrect,,,,664.0,,,,,,,,,,,,,1B,,,,,,,yes,,,2022-01-20T23:10:22.000Z,357424,group_9,396300,Prediction3/Open2,1,2022-01-20T22:20:54.000Z,,,,not measured,,True
9,Prediction3,4,Prediction_3,29,1,,,,,First,3_8B_prediction_6.mp3,1,,,,,,,,correct_left,,,,,,,,,,,,,,,,,,,,,,,,,,,,,,,,,Correct,,,,858.0,,,,,,,,,,,,,8B,,,,,,,yes,,,2022-01-20T23:10:22.000Z,357424,group_9,396300,Prediction3/Open2,1,2022-01-20T22:20:54.000Z,,,,not measured,,True
9,Prediction3,4,Prediction_3,30,16,,,,,Second,4_8B_prediction_5.mp3,2,,,,,,,,incorrect_left,,,,,,,,,,,,,,,,,,,,,,,,,,,,,,,,,Correct,,,,1117.0,,,,,,,,,,,,,8B,,,,,,,yes,,,2022-01-20T23:10:22.000Z,357424,group_9,396300,Prediction3/Open2,1,2022-01-20T22:20:54.000Z,,,,not measured,,True
9,Prediction3,3,Ready?,1,1,,,,,,,1,,,,,,,,,,,,,,,,,,,,,,,,,,,,,,,,,,,,,,,,,,,,,,,,,,,,,,,,,,,,,,,,,yes,,,2022-01-20T23:10:22.000Z,357424,group_9,396300,Prediction3/Open2,1,2022-01-20T22:20:54.000Z,,,,not measured,,True
9,Prediction3,2,Practice_Prediction,1,2,,,,,First,,1,,,,,,,,,,correct_incorrect,,,,,,,,,,,,,,,,,,,,,,,,,,,,,,,Correct,,,,3300.0,,,,,,,,,,,,,,,,,,,,yes,,,2022-01-20T23:10:22.000Z,357424,group_9,396300,Prediction3/Open2,1,2022-01-20T22:20:54.000Z,,,,not measured,,True
9,Prediction3,2,Practice_Prediction,2,3,,,,,First,,1,,,,,,,,,,correct_incorrect,,,,,,,,,,,,,,,,,,,,,,,,,,,,,,,Correct,,,,1446.0,,,,,,,,,,,,,,,,,,,,yes,,,2022-01-20T23:10:22.000Z,357424,group_9,396300,Prediction3/Open2,1,2022-01-20T22:20:54.000Z,,,,not measured,,True
9,Prediction3,2,Practice_Prediction,3,1,,,,,First,,1,,,,,,,,,,correct_incorrect,,,,,,,,,,,,,,,,,,,,,,,,,,,,,,,Correct,,,,2283.0,,,,,,,,,,,,,,,,,,,,yes,,,2022-01-20T23:10:22.000Z,357424,group_9,396300,Prediction3/Open2,1,2022-01-20T22:20:54.000Z,,,,not measured,,True
9,Prediction3,1,Instructions_Prediction,1,1,,,,,,,1,,,,,,,,,,,,,,,,,,,,,,,,,,,,,,,,,,,,,,,,,,,,,,,,,,,,,,,,,,,,,,,,,yes,,,2022-01-20T23:10:22.000Z,357424,group_9,396300,Prediction3/Open2,1,2022-01-20T22:20:54.000Z,,,,not measured,,True
7,HP_Screen,3,imported_HP Evaluation,1,1,,,,,,,1,,,,,,,,,,,,,,0.0,,,,,,,,,,,,,,,,,,,,,,,,,,,,,,,,,,,,,,,,,,,,,,,,,,,yes,,,2022-01-20T23:10:22.000Z,357424,group_9,396300,Prediction3/Open2,1,2022-01-20T22:20:54.000Z,,,,not measured,,True
7,HP_Screen,2,imported_HP Trials,1,5,,,,,,,1,,,,,,,,,,,,,,0.0,,,"""times=;;;;;;;;;;;;;;;;;---values=;;;;;;;;;;;;;;;;;""",hp1.1.flac,,,,,,,,,,,,,,,,,,,,,,,choice 1,,,,,,,,,,,,,,,,,,,hp1.1.flac,,,,,yes,,,2022-01-20T23:10:22.000Z,357424,group_9,396300,Prediction3/Open2,1,2022-01-20T22:20:54.000Z,,,,not measured,,True
7,HP_Screen,2,imported_HP Trials,2,1,,,,,,,1,,,,,,,,,,,,,,0.0,,,"""times=;;;;;;;;;;;;;;;;;---values=;;;;;;;;;;;;;;;;;""",hp1.2.flac,,,,,,,,,,,,,,,,,,,,,,,choice 2,,,,,,,,,,,,,,,,,,,hp1.2.flac,,,,,yes,,,2022-01-20T23:10:22.000Z,357424,group_9,396300,Prediction3/Open2,1,2022-01-20T22:20:54.000Z,,,,not measured,,True
7,HP_Screen,2,imported_HP Trials,3,3,,,,,,,1,,,,,,,,,,,,,,0.0,,,"""times=;;;;;;;;;;;;;;;;;---values=;;;;;;;;;;;;;;;;;""",hp5.2.flac,,,,,,,,,,,,,,,,,,,,,,,choice 2,,,,,,,,,,,,,,,,,,,hp5.2.flac,,,,,yes,,,2022-01-20T23:10:22.000Z,357424,group_9,396300,Prediction3/Open2,1,2022-01-20T22:20:54.000Z,,,,not measured,,True
7,HP_Screen,2,imported_HP Trials,4,4,,,,,,,1,,,,,,,,,,,,,,0.0,,,"""times=;;;;;;;;;;;;;;;;;---values=;;;;;;;;;;;;;;;;;""",hp4.3.flac,,,,,,,,,,,,,,,,,,,,,,,choice 3,,,,,,,,,,,,,,,,,,,hp4.3.flac,,,,,yes,,,2022-01-20T23:10:22.000Z,357424,group_9,396300,Prediction3/Open2,1,2022-01-20T22:20:54.000Z,,,,not measured,,True
7,HP_Screen,2,imported_HP Trials,5,2,,,,,,,1,,,,,,,,,,,,,,0.0,,,"""times=;;;;;;;;;;;;;;;;;---values=;;;;;;;;;;;;;;;;;""",hp3.1.flac,,,,,,,,,,,,,,,,,,,,,,,choice 1,,,,,,,,,,,,,,,,,,,hp3.1.flac,,,,,yes,,,2022-01-20T23:10:22.000Z,357424,group_9,396300,Prediction3/Open2,1,2022-01-20T22:20:54.000Z,,,,not measured,,True
7,HP_Screen,2,imported_HP Trials,6,6,,,,,,,1,,,,,,,,,,,,,,0.0,,,"""times=;;;;;;;;;;;;;;;;;---values=;;;;;;;;;;;;;;;;;""",hp2.3.flac,,,,,,,,,,,,,,,,,,,,,,,choice 3,,,,,,,,,,,,,,,,,,,hp2.3.flac,,,,,yes,,,2022-01-20T23:10:22.000Z,357424,group_9,396300,Prediction3/Open2,1,2022-01-20T22:20:54.000Z,,,,not measured,,True
7,HP_Screen,1,imported_HP Instructions,1,1,,,,,,,1,,,,,,,,,,,,,,,2.0,,,,,,,,,,,,,,,,,,,,,,,,,,,,,,,,,,,,,,,,,,,,,,,,,,yes,,,2022-01-20T23:10:22.000Z,357424,group_9,396300,Prediction3/Open2,1,2022-01-20T22:20:54.000Z,,,,not measured,,True
6,AP_Screen,3,imported_AP_eval,1,1,,,,,,,1,,,,,,,,,,,,,,,,,,,,,,,,,,,,,,,0.0,,,,,,,,,,,,,,,,,,,,,,,,,,,,,,,,,,yes,,,2022-01-20T23:10:22.000Z,357424,group_9,396300,Prediction3/Open2,1,2022-01-20T22:20:54.000Z,,,,not measured,,True
6,AP_Screen,2,imported_AP_headphone test,1,6,,,,,,,6,,,,,,,,,,,,three,,,,,,,,,,,,,,,1.0,,,,0.0,,,,,,,,,,,,,,,,,,,,,,,,,,,,,,,,O_I_S,,yes,,,2022-01-20T23:10:22.000Z,357424,group_9,396300,Prediction3/Open2,1,2022-01-20T22:20:54.000Z,,,,not measured,,True
6,AP_Screen,2,imported_AP_headphone test,2,5,,,,,,,5,,,,,,,,,,,,two,,,,,,,,,,,,,,,1.0,,,,0.0,,,,,,,,,,,,,,,,,,,,,,,,,,,,,,,,O_S_I,,yes,,,2022-01-20T23:10:22.000Z,357424,group_9,396300,Prediction3/Open2,1,2022-01-20T22:20:54.000Z,,,,not measured,,True
6,AP_Screen,2,imported_AP_headphone test,3,3,,,,,,,3,,,,,,,,,,,,one,,,,,,,,,,,,,,,1.0,,,,0.0,,,,,,,,,,,,,,,,,,,,,,,,,,,,,,,,S_O_I,,yes,,,2022-01-20T23:10:22.000Z,357424,group_9,396300,Prediction3/Open2,1,2022-01-20T22:20:54.000Z,,,,not measured,,True
6,AP_Screen,2,imported_AP_headphone test,4,4,,,,,,,4,,,,,,,,,,,,one,,,,,,,,,,,,,,,1.0,,,,0.0,,,,,,,,,,,,,,,,,,,,,,,,,,,,,,,,S_I_O,,yes,,,2022-01-20T23:10:22.000Z,357424,group_9,396300,Prediction3/Open2,1,2022-01-20T22:20:54.000Z,,,,not measured,,True
6,AP_Screen,2,imported_AP_headphone test,5,2,,,,,,,2,,,,,,,,,,,,two,,,,,,,,,,,,,,,1.0,,,,0.0,,,,,,,,,,,,,,,,,,,,,,,,,,,,,,,,I_S_O,,yes,,,2022-01-20T23:10:22.000Z,357424,group_9,396300,Prediction3/Open2,1,2022-01-20T22:20:54.000Z,,,,not measured,,True
6,AP_Screen,2,imported_AP_headphone test,6,1,,,,,,,1,,,,,,,,,,,,three,,,,,,,,,,,,,,,1.0,,,,0.0,,,,,,,,,,,,,,,,,,,,,,,,,,,,,,,,I_O_S,,yes,,,2022-01-20T23:10:22.000Z,357424,group_9,396300,Prediction3/Open2,1,2022-01-20T22:20:54.000Z,,,,not measured,,True
6,AP_Screen,1,imported_AP_instruction,1,1,,,,,,,1,,,,,,,,,,,,,,,,,,,,,,,,,,,,,,,,,,,,,,,,,,,,,,,,,,,,,,,,,,,,,,,,,yes,,,2022-01-20T23:10:22.000Z,357424,group_9,396300,Prediction3/Open2,1,2022-01-20T22:20:54.000Z,,,,not measured,,True
4,GenInstructPredOpen,1,InstructionsPredOpen,1,1,,,,,,,1,,,,,,,,,,,,,,,,,,,,,,,,,,,,,,,,,,,,,,,,,,,,,,,,,,,,,,,,,,,,,,,,,yes,,,2022-01-20T23:10:22.000Z,357424,group_9,396300,Prediction3/Open2,1,2022-01-20T22:20:54.000Z,,,,not measured,,True
2,Consent,1,Consent,1,1,,,,,,,1,,,,,,,,,,,,,,,,,,,,,,,,,,,,,,,,,,,,,,,,,,,,,,,,,,,,,,,,,,,,,,,,,yes,,,2022-01-20T23:10:22.000Z,357424,group_9,396300,Prediction3/Open2,1,2022-01-20T22:20:54.000Z,,,,not measured,,True
