Block_Nr,Block_Name,Task_Nr,Task_Name,Trial_Nr,Trial_Id,ab_pitch,age_range,answer,best_instru,choice,clip,Condition_Id,conditions,consent,correct_incorrect_m_2,correct_incorrect_m_3,correct_incorrect_mem_1,correct_incorrect_p_1,correct_incorrect_p_2,correct_incorrect_p_3,correct_incorrect_practice_m,correct_incorrect_practice_p,correctCount,decision,earworm,errorCount,exampleCount,familiarity,fileArray,filePick,Frequenc,genre,genre_3,genre_4,hour,imagery,imagery_2,Instr,isCorrect,listen_time,music_theory,name_instru,nrErrors,num_instru,participant_choice,participant_choice_2,participant_choice2,participant_spacePress,participant_spacePress2,played_notplayed,practice_catseg_scramble,relative_pitch,response,response_seg,response_seg2,response_Time2,responseTime,retestCount,scramble_cat_1,scramble_cat_3,scramble_cat_4,scramble_catseg_4,scramble_level,scramble_m_1,scramble_m_2,scramble_m_3,scramble_open_3,scramble_p_1,scramble_p_2,scramble_p_3,set1response,soundName,strategy,time_atClipStart1,toneSequence,always_fullscreen,completed,crowdsourcing_code,crowdsourcing_subj_id,end_time,exp_subject_id,group_name,rec_session_id,session_name,session_nr,start_time,subj_counter_global,subj_counter_per_group,subject_code,time_delay_offset,time_measure_std,unlocked
13,Post-Survey,1,Post-Survey,1,1,,,,,,,1,,,,,,,,,,,,,,,,1.0,,,,,,,,,,,,,,,,,,,,,,option_1,,,,,,,,,,,,,,,,,,,,,,,I tried to count the beats but i'm not an expert and i got kinda confused,,,,yes,,,2022-01-24T00:21:41.000Z,359115,group_5,398537,Memory2/Cat.3,1,2022-01-23T23:40:48.000Z,,,,not measured,,True
11,CategorizationSeg_3,4,CategorizationSeg_3,1,16,,,,,,,4,,,,,,,,,,,,,,,,,,,,,,,,,,,,,,,,,Every 4 seconds (every 2 measures),Every 4 seconds (every 2 measures),,,,,,,,Incorrect,Incorrect,1326.0,3323.0,,,1B,,,,,,,,,,,,,,,,,yes,,,2022-01-24T00:21:41.000Z,359115,group_5,398537,Memory2/Cat.3,1,2022-01-23T23:40:48.000Z,,,,not measured,,True
11,CategorizationSeg_3,4,CategorizationSeg_3,2,9,,,,,,,3,,,,,,,,,,,,,,,,,,,,,,,,,,,,,,,,,Every 2 seconds (every 1 measure),Every 2 seconds (every 1 measure),,,,,,,,Incorrect,Incorrect,1665.0,3275.0,,,2B,,,,,,,,,,,,,,,,,yes,,,2022-01-24T00:21:41.000Z,359115,group_5,398537,Memory2/Cat.3,1,2022-01-23T23:40:48.000Z,,,,not measured,,True
11,CategorizationSeg_3,4,CategorizationSeg_3,3,6,,,,,,,2,,,,,,,,,,,,,,,,,,,,,,,,,,,,,,,,,Every 2 seconds (every 1 measure),Every 2 seconds (every 1 measure),,,,,,,,Incorrect,Incorrect,880.0,1457.0,,,8B,,,,,,,,,,,,,,,,,yes,,,2022-01-24T00:21:41.000Z,359115,group_5,398537,Memory2/Cat.3,1,2022-01-23T23:40:48.000Z,,,,not measured,,True
11,CategorizationSeg_3,4,CategorizationSeg_3,4,13,,,,,,,4,,,,,,,,,,,,,,,,,,,,,,,,,,,,,,,,,Every 4 seconds (every 2 measures),Every 4 seconds (every 2 measures),,,,,,,,Incorrect,Incorrect,832.0,1577.0,,,1B,,,,,,,,,,,,,,,,,yes,,,2022-01-24T00:21:41.000Z,359115,group_5,398537,Memory2/Cat.3,1,2022-01-23T23:40:48.000Z,,,,not measured,,True
11,CategorizationSeg_3,4,CategorizationSeg_3,5,1,,,,,,,1,,,,,,,,,,,,,,,,,,,,,,,,,,,,,,,,,Every 2 seconds (every 1 measure),Every 2 seconds (every 1 measure),,,,,,,,Incorrect,Incorrect,832.0,1230.0,,,intact,,,,,,,,,,,,,,,,,yes,,,2022-01-24T00:21:41.000Z,359115,group_5,398537,Memory2/Cat.3,1,2022-01-23T23:40:48.000Z,,,,not measured,,True
11,CategorizationSeg_3,4,CategorizationSeg_3,6,12,,,,,,,3,,,,,,,,,,,,,,,,,,,,,,,,,,,,,,,,,Every 16 seconds (every 8 measures),Every 16 seconds (every 8 measures),,,,,,,,Incorrect,Incorrect,1217.0,692.0,,,2B,,,,,,,,,,,,,,,,,yes,,,2022-01-24T00:21:41.000Z,359115,group_5,398537,Memory2/Cat.3,1,2022-01-23T23:40:48.000Z,,,,not measured,,True
11,CategorizationSeg_3,4,CategorizationSeg_3,7,8,,,,,,,2,,,,,,,,,,,,,,,,,,,,,,,,,,,,,,,,,Every 16 seconds (every 8 measures),Every 16 seconds (every 8 measures),,,,,,,,Correct,Correct,1636.0,850.0,,,8B,,,,,,,,,,,,,,,,,yes,,,2022-01-24T00:21:41.000Z,359115,group_5,398537,Memory2/Cat.3,1,2022-01-23T23:40:48.000Z,,,,not measured,,True
11,CategorizationSeg_3,4,CategorizationSeg_3,8,4,,,,,,,1,,,,,,,,,,,,,,,,,,,,,,,,,,,,,,,,,Every 4 seconds (every 2 measures),Every 4 seconds (every 2 measures),,,,,,,,Incorrect,Incorrect,805.0,1207.0,,,intact,,,,,,,,,,,,,,,,,yes,,,2022-01-24T00:21:41.000Z,359115,group_5,398537,Memory2/Cat.3,1,2022-01-23T23:40:48.000Z,,,,not measured,,True
11,CategorizationSeg_3,3,Ready?,1,1,,,,,,,1,,,,,,,,,,,,,,,,,,,,,,,,,,,,,,,,,,,,,,,,,,,,,,,,,,,,,,,,,,,,,,,,,yes,,,2022-01-24T00:21:41.000Z,359115,group_5,398537,Memory2/Cat.3,1,2022-01-23T23:40:48.000Z,,,,not measured,,True
11,CategorizationSeg_3,2,Practice_Categorization,1,1,,,,,,,1,,,,,,,,,,,,,,,,,,,,,,,,,,,,,,,,,Every 16 seconds (every 8 measures),Every 16 seconds (every 8 measures),,,,,intact,,,Incorrect,Incorrect,3083.0,8318.0,,,,,,,,,,,,,,,,,,,,yes,,,2022-01-24T00:21:41.000Z,359115,group_5,398537,Memory2/Cat.3,1,2022-01-23T23:40:48.000Z,,,,not measured,,True
11,CategorizationSeg_3,1,Instructions for Categorization Seg.,1,1,,,,,,,1,,,,,,,,,,,,,,,,,,,,,,,,,,,,,,,,,,,,,,,,,,,,,,,,,,,,,,,,,,,,,,,,,yes,,,2022-01-24T00:21:41.000Z,359115,group_5,398537,Memory2/Cat.3,1,2022-01-23T23:40:48.000Z,,,,not measured,,True
9,Memory 2,4,Memory_2,1,12,,,,,Second,2_8B_memory_5.mp3,2,,,incorrect_left,,,,,,,,,,,,,,,,,,,,,,,,,,,,,,,,,,,,,,Correct,,,,891.0,,,,,,,,8B,,,,,,,,,,,,yes,,,2022-01-24T00:21:41.000Z,359115,group_5,398537,Memory2/Cat.3,1,2022-01-23T23:40:48.000Z,,,,not measured,,True
9,Memory 2,4,Memory_2,2,13,,,,,Second,2_8B_memory_6.mp3,2,,,incorrect_left,,,,,,,,,,,,,,,,,,,,,,,,,,,,,,,,,,,,,,Correct,,,,471.0,,,,,,,,8B,,,,,,,,,,,,yes,,,2022-01-24T00:21:41.000Z,359115,group_5,398537,Memory2/Cat.3,1,2022-01-23T23:40:48.000Z,,,,not measured,,True
9,Memory 2,4,Memory_2,3,20,,,,,Second,4_8B_memory_5.mp3,2,,,incorrect_left,,,,,,,,,,,,,,,,,,,,,,,,,,,,,,,,,,,,,,Correct,,,,539.0,,,,,,,,8B,,,,,,,,,,,,yes,,,2022-01-24T00:21:41.000Z,359115,group_5,398537,Memory2/Cat.3,1,2022-01-23T23:40:48.000Z,,,,not measured,,True
9,Memory 2,4,Memory_2,4,32,,,,,Second,2_2B_memory_5.mp3,4,,,incorrect_left,,,,,,,,,,,,,,,,,,,,,,,,,,,,,,,,,,,,,,Correct,,,,1398.0,,,,,,,,2B,,,,,,,,,,,,yes,,,2022-01-24T00:21:41.000Z,359115,group_5,398537,Memory2/Cat.3,1,2022-01-23T23:40:48.000Z,,,,not measured,,True
9,Memory 2,4,Memory_2,5,37,,,,,First,4_2B_memory_2.mp3,4,,,incorrect_left,,,,,,,,,,,,,,,,,,,,,,,,,,,,,,,,,,,,,,Incorrect,,,,907.0,,,,,,,,2B,,,,,,,,,,,,yes,,,2022-01-24T00:21:41.000Z,359115,group_5,398537,Memory2/Cat.3,1,2022-01-23T23:40:48.000Z,,,,not measured,,True
9,Memory 2,4,Memory_2,6,52,,,,,Second,2_1B_memory_5.mp3,6,,,incorrect_left,,,,,,,,,,,,,,,,,,,,,,,,,,,,,,,,,,,,,,Correct,,,,1009.0,,,,,,,,1B,,,,,,,,,,,,yes,,,2022-01-24T00:21:41.000Z,359115,group_5,398537,Memory2/Cat.3,1,2022-01-23T23:40:48.000Z,,,,not measured,,True
9,Memory 2,4,Memory_2,7,29,,,,,Second,4_2B_memory_4.mp3,3,,,correct_left,,,,,,,,,,,,,,,,,,,,,,,,,,,,,,,,,,,,,,Incorrect,,,,1349.0,,,,,,,,2B,,,,,,,,,,,,yes,,,2022-01-24T00:21:41.000Z,359115,group_5,398537,Memory2/Cat.3,1,2022-01-23T23:40:48.000Z,,,,not measured,,True
9,Memory 2,4,Memory_2,8,18,,,,,Second,4_8B_memory_3.mp3,2,,,incorrect_left,,,,,,,,,,,,,,,,,,,,,,,,,,,,,,,,,,,,,,Correct,,,,1112.0,,,,,,,,8B,,,,,,,,,,,,yes,,,2022-01-24T00:21:41.000Z,359115,group_5,398537,Memory2/Cat.3,1,2022-01-23T23:40:48.000Z,,,,not measured,,True
9,Memory 2,4,Memory_2,9,28,,,,,First,4_2B_memory_3.mp3,3,,,correct_left,,,,,,,,,,,,,,,,,,,,,,,,,,,,,,,,,,,,,,Correct,,,,2952.0,,,,,,,,2B,,,,,,,,,,,,yes,,,2022-01-24T00:21:41.000Z,359115,group_5,398537,Memory2/Cat.3,1,2022-01-23T23:40:48.000Z,,,,not measured,,True
9,Memory 2,4,Memory_2,10,48,,,,,First,4_1B_memory_3.mp3,5,,,correct_left,,,,,,,,,,,,,,,,,,,,,,,,,,,,,,,,,,,,,,Correct,,,,722.0,,,,,,,,1B,,,,,,,,,,,,yes,,,2022-01-24T00:21:41.000Z,359115,group_5,398537,Memory2/Cat.3,1,2022-01-23T23:40:48.000Z,,,,not measured,,True
9,Memory 2,4,Memory_2,11,24,,,,,Second,2_2B_memory_7.mp3,3,,,correct_left,,,,,,,,,,,,,,,,,,,,,,,,,,,,,,,,,,,,,,Incorrect,,,,826.0,,,,,,,,2B,,,,,,,,,,,,yes,,,2022-01-24T00:21:41.000Z,359115,group_5,398537,Memory2/Cat.3,1,2022-01-23T23:40:48.000Z,,,,not measured,,True
9,Memory 2,4,Memory_2,12,5,,,,,First,2_8B_memory_8.mp3,1,,,correct_left,,,,,,,,,,,,,,,,,,,,,,,,,,,,,,,,,,,,,,Correct,,,,747.0,,,,,,,,8B,,,,,,,,,,,,yes,,,2022-01-24T00:21:41.000Z,359115,group_5,398537,Memory2/Cat.3,1,2022-01-23T23:40:48.000Z,,,,not measured,,True
9,Memory 2,4,Memory_2,13,49,,,,,Second,4_1B_memory_4.mp3,5,,,correct_left,,,,,,,,,,,,,,,,,,,,,,,,,,,,,,,,,,,,,,Incorrect,,,,1038.0,,,,,,,,1B,,,,,,,,,,,,yes,,,2022-01-24T00:21:41.000Z,359115,group_5,398537,Memory2/Cat.3,1,2022-01-23T23:40:48.000Z,,,,not measured,,True
9,Memory 2,4,Memory_2,14,36,,,,,Second,4_2B_memory_1.mp3,4,,,incorrect_left,,,,,,,,,,,,,,,,,,,,,,,,,,,,,,,,,,,,,,Correct,,,,750.0,,,,,,,,2B,,,,,,,,,,,,yes,,,2022-01-24T00:21:41.000Z,359115,group_5,398537,Memory2/Cat.3,1,2022-01-23T23:40:48.000Z,,,,not measured,,True
9,Memory 2,4,Memory_2,15,1,,,,,First,2_8B_memory_4.mp3,1,,,correct_left,,,,,,,,,,,,,,,,,,,,,,,,,,,,,,,,,,,,,,Correct,,,,828.0,,,,,,,,8B,,,,,,,,,,,,yes,,,2022-01-24T00:21:41.000Z,359115,group_5,398537,Memory2/Cat.3,1,2022-01-23T23:40:48.000Z,,,,not measured,,True
9,Memory 2,4,Memory_2,16,21,,,,,First,2_2B_memory_4.mp3,3,,,correct_left,,,,,,,,,,,,,,,,,,,,,,,,,,,,,,,,,,,,,,Correct,,,,1229.0,,,,,,,,2B,,,,,,,,,,,,yes,,,2022-01-24T00:21:41.000Z,359115,group_5,398537,Memory2/Cat.3,1,2022-01-23T23:40:48.000Z,,,,not measured,,True
9,Memory 2,4,Memory_2,17,43,,,,,Second,2_1B_memory_6.mp3,5,,,correct_left,,,,,,,,,,,,,,,,,,,,,,,,,,,,,,,,,,,,,,Incorrect,,,,818.0,,,,,,,,1B,,,,,,,,,,,,yes,,,2022-01-24T00:21:41.000Z,359115,group_5,398537,Memory2/Cat.3,1,2022-01-23T23:40:48.000Z,,,,not measured,,True
9,Memory 2,4,Memory_2,18,25,,,,,First,2_2B_memory_8.mp3,3,,,correct_left,,,,,,,,,,,,,,,,,,,,,,,,,,,,,,,,,,,,,,Correct,,,,837.0,,,,,,,,2B,,,,,,,,,,,,yes,,,2022-01-24T00:21:41.000Z,359115,group_5,398537,Memory2/Cat.3,1,2022-01-23T23:40:48.000Z,,,,not measured,,True
9,Memory 2,4,Memory_2,19,9,,,,,First,4_8B_memory_4.mp3,1,,,correct_left,,,,,,,,,,,,,,,,,,,,,,,,,,,,,,,,,,,,,,Correct,,,,730.0,,,,,,,,8B,,,,,,,,,,,,yes,,,2022-01-24T00:21:41.000Z,359115,group_5,398537,Memory2/Cat.3,1,2022-01-23T23:40:48.000Z,,,,not measured,,True
9,Memory 2,4,Memory_2,20,41,,,,,First,2_1B_memory_4.mp3,5,,,correct_left,,,,,,,,,,,,,,,,,,,,,,,,,,,,,,,,,,,,,,Correct,,,,824.0,,,,,,,,1B,,,,,,,,,,,,yes,,,2022-01-24T00:21:41.000Z,359115,group_5,398537,Memory2/Cat.3,1,2022-01-23T23:40:48.000Z,,,,not measured,,True
9,Memory 2,4,Memory_2,21,50,,,,,First,4_1B_memory_5.mp3,5,,,correct_left,,,,,,,,,,,,,,,,,,,,,,,,,,,,,,,,,,,,,,Correct,,,,2368.0,,,,,,,,1B,,,,,,,,,,,,yes,,,2022-01-24T00:21:41.000Z,359115,group_5,398537,Memory2/Cat.3,1,2022-01-23T23:40:48.000Z,,,,not measured,,True
9,Memory 2,4,Memory_2,22,40,,,,,First,4_2B_memory_5.mp3,4,,,incorrect_left,,,,,,,,,,,,,,,,,,,,,,,,,,,,,,,,,,,,,,Incorrect,,,,570.0,,,,,,,,2B,,,,,,,,,,,,yes,,,2022-01-24T00:21:41.000Z,359115,group_5,398537,Memory2/Cat.3,1,2022-01-23T23:40:48.000Z,,,,not measured,,True
9,Memory 2,4,Memory_2,23,16,,,,,Second,4_8B_memory_1.mp3,2,,,incorrect_left,,,,,,,,,,,,,,,,,,,,,,,,,,,,,,,,,,,,,,Correct,,,,624.0,,,,,,,,8B,,,,,,,,,,,,yes,,,2022-01-24T00:21:41.000Z,359115,group_5,398537,Memory2/Cat.3,1,2022-01-23T23:40:48.000Z,,,,not measured,,True
9,Memory 2,4,Memory_2,24,23,,,,,First,2_2B_memory_6.mp3,3,,,correct_left,,,,,,,,,,,,,,,,,,,,,,,,,,,,,,,,,,,,,,Correct,,,,1019.0,,,,,,,,2B,,,,,,,,,,,,yes,,,2022-01-24T00:21:41.000Z,359115,group_5,398537,Memory2/Cat.3,1,2022-01-23T23:40:48.000Z,,,,not measured,,True
9,Memory 2,4,Memory_2,25,54,,,,,Second,2_1B_memory_7.mp3,6,,,incorrect_left,,,,,,,,,,,,,,,,,,,,,,,,,,,,,,,,,,,,,,Correct,,,,685.0,,,,,,,,1B,,,,,,,,,,,,yes,,,2022-01-24T00:21:41.000Z,359115,group_5,398537,Memory2/Cat.3,1,2022-01-23T23:40:48.000Z,,,,not measured,,True
9,Memory 2,4,Memory_2,26,55,,,,,Second,2_1B_memory_8.mp3,6,,,incorrect_left,,,,,,,,,,,,,,,,,,,,,,,,,,,,,,,,,,,,,,Correct,,,,932.0,,,,,,,,1B,,,,,,,,,,,,yes,,,2022-01-24T00:21:41.000Z,359115,group_5,398537,Memory2/Cat.3,1,2022-01-23T23:40:48.000Z,,,,not measured,,True
9,Memory 2,4,Memory_2,27,4,,,,,First,2_8B_memory_7.mp3,1,,,correct_left,,,,,,,,,,,,,,,,,,,,,,,,,,,,,,,,,,,,,,Correct,,,,837.0,,,,,,,,8B,,,,,,,,,,,,yes,,,2022-01-24T00:21:41.000Z,359115,group_5,398537,Memory2/Cat.3,1,2022-01-23T23:40:48.000Z,,,,not measured,,True
9,Memory 2,4,Memory_2,28,57,,,,,First,4_1B_memory_2.mp3,6,,,incorrect_left,,,,,,,,,,,,,,,,,,,,,,,,,,,,,,,,,,,,,,Incorrect,,,,1139.0,,,,,,,,1B,,,,,,,,,,,,yes,,,2022-01-24T00:21:41.000Z,359115,group_5,398537,Memory2/Cat.3,1,2022-01-23T23:40:48.000Z,,,,not measured,,True
9,Memory 2,4,Memory_2,29,56,,,,,First,4_1B_memory_1.mp3,6,,,incorrect_left,,,,,,,,,,,,,,,,,,,,,,,,,,,,,,,,,,,,,,Incorrect,,,,712.0,,,,,,,,1B,,,,,,,,,,,,yes,,,2022-01-24T00:21:41.000Z,359115,group_5,398537,Memory2/Cat.3,1,2022-01-23T23:40:48.000Z,,,,not measured,,True
9,Memory 2,4,Memory_2,30,17,,,,,First,4_8B_memory_2.mp3,2,,,incorrect_left,,,,,,,,,,,,,,,,,,,,,,,,,,,,,,,,,,,,,,Incorrect,,,,921.0,,,,,,,,8B,,,,,,,,,,,,yes,,,2022-01-24T00:21:41.000Z,359115,group_5,398537,Memory2/Cat.3,1,2022-01-23T23:40:48.000Z,,,,not measured,,True
9,Memory 2,3,Ready?,1,1,,,,,,,1,,,,,,,,,,,,,,,,,,,,,,,,,,,,,,,,,,,,,,,,,,,,,,,,,,,,,,,,,,,,,,,,,yes,,,2022-01-24T00:21:41.000Z,359115,group_5,398537,Memory2/Cat.3,1,2022-01-23T23:40:48.000Z,,,,not measured,,True
9,Memory 2,2,Practice_Memory,1,2,,,,,First,,1,,,,,,,,,correct_incorrect,,,,,,,,,,,,,,,,,,,,,,,,,,,,,,,,Correct,,,,1071.0,,,,,,,,,,,,,,,,,,,,yes,,,2022-01-24T00:21:41.000Z,359115,group_5,398537,Memory2/Cat.3,1,2022-01-23T23:40:48.000Z,,,,not measured,,True
9,Memory 2,2,Practice_Memory,2,4,,,,,Second,,2,,,,,,,,,incorrect_correc,,,,,,,,,,,,,,,,,,,,,,,,,,,,,,,,Correct,,,,2134.0,,,,,,,,,,,,,,,,,,,,yes,,,2022-01-24T00:21:41.000Z,359115,group_5,398537,Memory2/Cat.3,1,2022-01-23T23:40:48.000Z,,,,not measured,,True
9,Memory 2,2,Practice_Memory,3,6,,,,,First,,2,,,,,,,,,incorrect_correc,,,,,,,,,,,,,,,,,,,,,,,,,,,,,,,,Incorrect,,,,847.0,,,,,,,,,,,,,,,,,,,,yes,,,2022-01-24T00:21:41.000Z,359115,group_5,398537,Memory2/Cat.3,1,2022-01-23T23:40:48.000Z,,,,not measured,,True
9,Memory 2,1,Instructions_Memory,1,1,,,,,,,1,,,,,,,,,,,,,,,,,,,,,,,,,,,,,,,,,,,,,,,,,,,,,,,,,,,,,,,,,,,,,,,,,yes,,,2022-01-24T00:21:41.000Z,359115,group_5,398537,Memory2/Cat.3,1,2022-01-23T23:40:48.000Z,,,,not measured,,True
7,AP_Screen,3,imported_AP_eval,1,1,,,,,,,1,,,,,,,,,,,,,,,,,,,,,,,,,,,,,,,0.0,,,,,,,,,,,,,,,,,,,,,,,,,,,,,,,,,,yes,,,2022-01-24T00:21:41.000Z,359115,group_5,398537,Memory2/Cat.3,1,2022-01-23T23:40:48.000Z,,,,not measured,,True
7,AP_Screen,2,imported_AP_headphone test,1,2,,,,,,,2,,,,,,,,,,,,two,,,,,,,,,,,,,,,1.0,,,,0.0,,,,,,,,,,,,,,,,,,,,,,,,,,,,,,,,I_S_O,,yes,,,2022-01-24T00:21:41.000Z,359115,group_5,398537,Memory2/Cat.3,1,2022-01-23T23:40:48.000Z,,,,not measured,,True
7,AP_Screen,2,imported_AP_headphone test,2,5,,,,,,,5,,,,,,,,,,,,two,,,,,,,,,,,,,,,1.0,,,,0.0,,,,,,,,,,,,,,,,,,,,,,,,,,,,,,,,O_S_I,,yes,,,2022-01-24T00:21:41.000Z,359115,group_5,398537,Memory2/Cat.3,1,2022-01-23T23:40:48.000Z,,,,not measured,,True
7,AP_Screen,2,imported_AP_headphone test,3,4,,,,,,,4,,,,,,,,,,,,one,,,,,,,,,,,,,,,1.0,,,,0.0,,,,,,,,,,,,,,,,,,,,,,,,,,,,,,,,S_I_O,,yes,,,2022-01-24T00:21:41.000Z,359115,group_5,398537,Memory2/Cat.3,1,2022-01-23T23:40:48.000Z,,,,not measured,,True
7,AP_Screen,2,imported_AP_headphone test,4,1,,,,,,,1,,,,,,,,,,,,three,,,,,,,,,,,,,,,1.0,,,,0.0,,,,,,,,,,,,,,,,,,,,,,,,,,,,,,,,I_O_S,,yes,,,2022-01-24T00:21:41.000Z,359115,group_5,398537,Memory2/Cat.3,1,2022-01-23T23:40:48.000Z,,,,not measured,,True
7,AP_Screen,2,imported_AP_headphone test,5,3,,,,,,,3,,,,,,,,,,,,one,,,,,,,,,,,,,,,1.0,,,,0.0,,,,,,,,,,,,,,,,,,,,,,,,,,,,,,,,S_O_I,,yes,,,2022-01-24T00:21:41.000Z,359115,group_5,398537,Memory2/Cat.3,1,2022-01-23T23:40:48.000Z,,,,not measured,,True
7,AP_Screen,2,imported_AP_headphone test,6,6,,,,,,,6,,,,,,,,,,,,three,,,,,,,,,,,,,,,1.0,,,,0.0,,,,,,,,,,,,,,,,,,,,,,,,,,,,,,,,O_I_S,,yes,,,2022-01-24T00:21:41.000Z,359115,group_5,398537,Memory2/Cat.3,1,2022-01-23T23:40:48.000Z,,,,not measured,,True
7,AP_Screen,1,imported_AP_instruction,1,1,,,,,,,1,,,,,,,,,,,,,,,,,,,,,,,,,,,,,,,,,,,,,,,,,,,,,,,,,,,,,,,,,,,,,,,,,yes,,,2022-01-24T00:21:41.000Z,359115,group_5,398537,Memory2/Cat.3,1,2022-01-23T23:40:48.000Z,,,,not measured,,True
6,HP_Screen,3,imported_HP Evaluation,1,1,,,,,,,1,,,,,,,,,,,,,,0.0,,,,,,,,,,,,,,,,,,,,,,,,,,,,,,,,,,,,,,,,,,,,,,,,,,,yes,,,2022-01-24T00:21:41.000Z,359115,group_5,398537,Memory2/Cat.3,1,2022-01-23T23:40:48.000Z,,,,not measured,,True
6,HP_Screen,2,imported_HP Trials,1,5,,,,,,,1,,,,,,,,,,,,,,0.0,,,"""times=;;;;;;;;;;;;;;;;;---values=;;;;;;;;;;;;;;;;;""",hp3.3.flac,,,,,,,,,,,,,,,,,,,,,,,choice 3,,,,,,,,,,,,,,,,,,,hp3.3.flac,,,,,yes,,,2022-01-24T00:21:41.000Z,359115,group_5,398537,Memory2/Cat.3,1,2022-01-23T23:40:48.000Z,,,,not measured,,True
6,HP_Screen,2,imported_HP Trials,2,6,,,,,,,1,,,,,,,,,,,,,,0.0,,,"""times=;;;;;;;;;;;;;;;;;---values=;;;;;;;;;;;;;;;;;""",hp4.2.flac,,,,,,,,,,,,,,,,,,,,,,,choice 2,,,,,,,,,,,,,,,,,,,hp4.2.flac,,,,,yes,,,2022-01-24T00:21:41.000Z,359115,group_5,398537,Memory2/Cat.3,1,2022-01-23T23:40:48.000Z,,,,not measured,,True
6,HP_Screen,2,imported_HP Trials,3,1,,,,,,,1,,,,,,,,,,,,,,0.0,,,"""times=;;;;;;;;;;;;;;;;;---values=;;;;;;;;;;;;;;;;;""",hp5.3.flac,,,,,,,,,,,,,,,,,,,,,,,choice 3,,,,,,,,,,,,,,,,,,,hp5.3.flac,,,,,yes,,,2022-01-24T00:21:41.000Z,359115,group_5,398537,Memory2/Cat.3,1,2022-01-23T23:40:48.000Z,,,,not measured,,True
6,HP_Screen,2,imported_HP Trials,4,4,,,,,,,1,,,,,,,,,,,,,,0.0,,,"""times=;;;;;;;;;;;;;;;;;---values=;;;;;;;;;;;;;;;;;""",hp6.1.flac,,,,,,,,,,,,,,,,,,,,,,,choice 1,,,,,,,,,,,,,,,,,,,hp6.1.flac,,,,,yes,,,2022-01-24T00:21:41.000Z,359115,group_5,398537,Memory2/Cat.3,1,2022-01-23T23:40:48.000Z,,,,not measured,,True
6,HP_Screen,2,imported_HP Trials,5,3,,,,,,,1,,,,,,,,,,,,,,0.0,,,"""times=;;;;;;;;;;;;;;;;;---values=;;;;;;;;;;;;;;;;;""",hp5.2.flac,,,,,,,,,,,,,,,,,,,,,,,choice 2,,,,,,,,,,,,,,,,,,,hp5.2.flac,,,,,yes,,,2022-01-24T00:21:41.000Z,359115,group_5,398537,Memory2/Cat.3,1,2022-01-23T23:40:48.000Z,,,,not measured,,True
6,HP_Screen,2,imported_HP Trials,6,2,,,,,,,1,,,,,,,,,,,,,,0.0,,,"""times=;;;;;;;;;;;;;;;;;---values=;;;;;;;;;;;;;;;;;""",hp1.3.flac,,,,,,,,,,,,,,,,,,,,,,,choice 3,,,,,,,,,,,,,,,,,,,hp1.3.flac,,,,,yes,,,2022-01-24T00:21:41.000Z,359115,group_5,398537,Memory2/Cat.3,1,2022-01-23T23:40:48.000Z,,,,not measured,,True
6,HP_Screen,1,imported_HP Instructions,1,1,,,,,,,1,,,,,,,,,,,,,,,1.0,,,,,,,,,,,,,,,,,,,,,,,,,,,,,,,,,,,,,,,,,,,,,,,,,,yes,,,2022-01-24T00:21:41.000Z,359115,group_5,398537,Memory2/Cat.3,1,2022-01-23T23:40:48.000Z,,,,not measured,,True
4,GenInstructMemCat,1,InstructionsMemCat,1,1,,,,,,,1,,,,,,,,,,,,,,,,,,,,,,,,,,,,,,,,,,,,,,,,,,,,,,,,,,,,,,,,,,,,,,,,,yes,,,2022-01-24T00:21:41.000Z,359115,group_5,398537,Memory2/Cat.3,1,2022-01-23T23:40:48.000Z,,,,not measured,,True
2,Consent,1,Consent,1,1,,,,,,,1,,,,,,,,,,,,,,,,,,,,,,,,,,,,,,,,,,,,,,,,,,,,,,,,,,,,,,,,,,,,,,,,,yes,,,2022-01-24T00:21:41.000Z,359115,group_5,398537,Memory2/Cat.3,1,2022-01-23T23:40:48.000Z,,,,not measured,,True
