Block_Nr,Block_Name,Task_Nr,Task_Name,Trial_Nr,Trial_Id,ab_pitch,age_range,answer,best_instru,choice,clip,Condition_Id,conditions,consent,correct_incorrect_m_2,correct_incorrect_m_3,correct_incorrect_mem_1,correct_incorrect_p_1,correct_incorrect_p_2,correct_incorrect_p_3,correct_incorrect_practice_m,correct_incorrect_practice_p,correctCount,decision,earworm,errorCount,exampleCount,familiarity,fileArray,filePick,Frequenc,genre,genre_3,genre_4,hour,imagery,imagery_2,Instr,isCorrect,listen_time,music_theory,name_instru,nrErrors,num_instru,participant_choice,participant_choice_2,participant_choice2,participant_spacePress,participant_spacePress2,played_notplayed,practice_catseg_scramble,relative_pitch,response,response_seg,response_seg2,response_Time2,responseTime,retestCount,scramble_cat_1,scramble_cat_3,scramble_cat_4,scramble_catseg_4,scramble_level,scramble_m_1,scramble_m_2,scramble_m_3,scramble_open_3,scramble_p_1,scramble_p_2,scramble_p_3,set1response,soundName,strategy,time_atClipStart1,toneSequence,always_fullscreen,completed,crowdsourcing_code,crowdsourcing_subj_id,end_time,exp_subject_id,group_name,rec_session_id,session_name,session_nr,start_time,subj_counter_global,subj_counter_per_group,subject_code,time_delay_offset,time_measure_std,unlocked
13,Post-Survey,1,Post-Survey,1,1,No,26-29,,Bass guitar,,,1,,,,,,,,,,,,,3.0,,,2.0,,,Monthly,Classical,Rap,Rock,1.5 hours,,3.0,3 years,,30-60 min,0 years,Bass guitar,,1.0,,,,,,option_1,,No,,,,,,,,,,,,,,,,,,,,,I focused on a change in tempo,,,,yes,,,2022-01-24T19:26:28.000Z,360238,group_2,399732,Memory2/Open3,1,2022-01-24T18:43:56.000Z,,,,not measured,,True
11,OpenEndedSeg_3,4,OpenEndedSeg_3,1,13,,,,,,,4,,,,,,,,,,,,,,,,,,,,,,,,,,,,,,,,,,,,"""times=1643051167063---values=""","""times=1643051167063;1643051252563;1643051260154;1643051300867---values=;18005;25596;66309""",,,,,,,,,,,,,,,,,,1B,,,,,,,,,,yes,,,2022-01-24T19:26:28.000Z,360238,group_2,399732,Memory2/Open3,1,2022-01-24T18:43:56.000Z,,,,not measured,,True
11,OpenEndedSeg_3,4,OpenEndedSeg_3,2,6,,,,,,,2,,,,,,,,,,,,,,,,,,,,,,,,,,,,,,,,,,,,"""times=1643051367347---values=65287""","""times=1643051302030;1643051419013;1643051420973---values=;49708;51668""",,,,,,,,,,,,,,,,,,8B,,,,,,,,,,yes,,,2022-01-24T19:26:28.000Z,360238,group_2,399732,Memory2/Open3,1,2022-01-24T18:43:56.000Z,,,,not measured,,True
11,OpenEndedSeg_3,4,OpenEndedSeg_3,3,16,,,,,,,4,,,,,,,,,,,,,,,,,,,,,,,,,,,,,,,,,,,,"""times=1643051436543;1643051469366;1643051497950---values=;32802;61386""","""times=1643051436543;1643051530182;1643051533853;1643051543149;1643051557302---values=;30093;33764;43060;57213""",,,,,,,,,,,,,,,,,,1B,,,,,,,,,,yes,,,2022-01-24T19:26:28.000Z,360238,group_2,399732,Memory2/Open3,1,2022-01-24T18:43:56.000Z,,,,not measured,,True
11,OpenEndedSeg_3,4,OpenEndedSeg_3,4,11,,,,,,,3,,,,,,,,,,,,,,,,,,,,,,,,,,,,,,,,,,,,"""times=1643051563572;1643051593637;1643051599877;1643051616417---values=;30050;36290;52830""","""times=1643051563573;1643051637596;1643051649057;1643051662428;1643051672530;1643051684190;1643051697376---values=;6244;17705;31076;41178;52838;66023""",,,,,,,,,,,,,,,,,,2B,,,,,,,,,,yes,,,2022-01-24T19:26:28.000Z,360238,group_2,399732,Memory2/Open3,1,2022-01-24T18:43:56.000Z,,,,not measured,,True
11,OpenEndedSeg_3,4,OpenEndedSeg_3,5,2,,,,,,,1,,,,,,,,,,,,,,,,,,,,,,,,,,,,,,,,,,,,"""times=1643051699107;1643051702565;1643051709701;1643051716117;1643051729143;1643051747972;1643051764052---values=;3414;10550;16966;29992;48821;64901""","""times=1643051699107;1643051779095;1643051788505;1643051795389;1643051809541---values=;13928;23338;30222;44374""",,,,,,,,,,,,,,,,,,intact,,,,,,,,,,yes,,,2022-01-24T19:26:28.000Z,360238,group_2,399732,Memory2/Open3,1,2022-01-24T18:43:56.000Z,,,,not measured,,True
11,OpenEndedSeg_3,4,OpenEndedSeg_3,6,7,,,,,,,2,,,,,,,,,,,,,,,,,,,,,,,,,,,,,,,,,,,,"""times=1643051831155;1643051851272;1643051895857---values=;20082;64667""","""times=1643051831155;1643051924503;1643051946172;1643051963875---values=;25837;47506;65209""",,,,,,,,,,,,,,,,,,8B,,,,,,,,,,yes,,,2022-01-24T19:26:28.000Z,360238,group_2,399732,Memory2/Open3,1,2022-01-24T18:43:56.000Z,,,,not measured,,True
11,OpenEndedSeg_3,4,OpenEndedSeg_3,7,1,,,,,,,1,,,,,,,,,,,,,,,,,,,,,,,,,,,,,,,,,,,,"""times=1643051966118;1643052001057;1643052015550;1643052019647---values=;34909;49402;53499""","""times=1643051966118;1643052035323;1643052065907;1643052081499---values=;2875;33460;49052""",,,,,,,,,,,,,,,,,,intact,,,,,,,,,,yes,,,2022-01-24T19:26:28.000Z,360238,group_2,399732,Memory2/Open3,1,2022-01-24T18:43:56.000Z,,,,not measured,,True
11,OpenEndedSeg_3,4,OpenEndedSeg_3,8,9,,,,,,,3,,,,,,,,,,,,,,,,,,,,,,,,,,,,,,,,,,,,"""times=1643052098717;1643052105512;1643052132665;1643052145692;1643052164284---values=;6783;33936;46963;65555""","""times=1643052098717;1643052231034---values=;65222""",,,,,,,,,,,,,,,,,,2B,,,,,,,,,,yes,,,2022-01-24T19:26:28.000Z,360238,group_2,399732,Memory2/Open3,1,2022-01-24T18:43:56.000Z,,,,not measured,,True
11,OpenEndedSeg_3,3,Ready?,1,1,,,,,,,1,,,,,,,,,,,,,,,,,,,,,,,,,,,,,,,,,,,,,,,,,,,,,,,,,,,,,,,,,,,,,,,,,yes,,,2022-01-24T19:26:28.000Z,360238,group_2,399732,Memory2/Open3,1,2022-01-24T18:43:56.000Z,,,,not measured,,True
11,OpenEndedSeg_3,2,Practice_OpenEnded,1,1,,,,,,,1,,,,,,,,,,,,,,,,,,,,,,,,,,,,,,,,,,,,"""times=1643051017527;1643051020213;1643051037563;1643051044548;1643051077646---values=10133;12819;30169;37154;70252""","""times=1643051098555;1643051107955;1643051110092;1643051112987;1643051125471;1643051132083;1643051140681;1643051153941---values=15730;25130;27267;30162;42646;49258;57856;71116""",,,,,,,,,,,,,,,,,,,,,,,,,,,,yes,,,2022-01-24T19:26:28.000Z,360238,group_2,399732,Memory2/Open3,1,2022-01-24T18:43:56.000Z,,,,not measured,,True
11,OpenEndedSeg_3,1,Instructions_Open,1,1,,,,,,,1,,,,,,,,,,,,,,,,,,,,,,,,,,,,,,,,,,,,,,,,,,,,,,,,,,,,,,,,,,,,,,,,,yes,,,2022-01-24T19:26:28.000Z,360238,group_2,399732,Memory2/Open3,1,2022-01-24T18:43:56.000Z,,,,not measured,,True
9,Memory 2,4,Memory_2,1,20,,,,,Second,4_8B_memory_5.mp3,2,,,incorrect_left,,,,,,,,,,,,,,,,,,,,,,,,,,,,,,,,,,,,,,Correct,,,,764.0,,,,,,,,8B,,,,,,,,,,,,yes,,,2022-01-24T19:26:28.000Z,360238,group_2,399732,Memory2/Open3,1,2022-01-24T18:43:56.000Z,,,,not measured,,True
9,Memory 2,4,Memory_2,2,44,,,,,First,2_1B_memory_7.mp3,5,,,correct_left,,,,,,,,,,,,,,,,,,,,,,,,,,,,,,,,,,,,,,Correct,,,,758.0,,,,,,,,1B,,,,,,,,,,,,yes,,,2022-01-24T19:26:28.000Z,360238,group_2,399732,Memory2/Open3,1,2022-01-24T18:43:56.000Z,,,,not measured,,True
9,Memory 2,4,Memory_2,3,47,,,,,First,4_1B_memory_2.mp3,5,,,correct_left,,,,,,,,,,,,,,,,,,,,,,,,,,,,,,,,,,,,,,Correct,,,,1775.0,,,,,,,,1B,,,,,,,,,,,,yes,,,2022-01-24T19:26:28.000Z,360238,group_2,399732,Memory2/Open3,1,2022-01-24T18:43:56.000Z,,,,not measured,,True
9,Memory 2,4,Memory_2,4,56,,,,,First,4_1B_memory_1.mp3,6,,,incorrect_left,,,,,,,,,,,,,,,,,,,,,,,,,,,,,,,,,,,,,,Incorrect,,,,1273.0,,,,,,,,1B,,,,,,,,,,,,yes,,,2022-01-24T19:26:28.000Z,360238,group_2,399732,Memory2/Open3,1,2022-01-24T18:43:56.000Z,,,,not measured,,True
9,Memory 2,4,Memory_2,5,21,,,,,First,2_2B_memory_4.mp3,3,,,correct_left,,,,,,,,,,,,,,,,,,,,,,,,,,,,,,,,,,,,,,Correct,,,,2301.0,,,,,,,,2B,,,,,,,,,,,,yes,,,2022-01-24T19:26:28.000Z,360238,group_2,399732,Memory2/Open3,1,2022-01-24T18:43:56.000Z,,,,not measured,,True
9,Memory 2,4,Memory_2,6,34,,,,,Second,2_2B_memory_7.mp3,4,,,incorrect_left,,,,,,,,,,,,,,,,,,,,,,,,,,,,,,,,,,,,,,Correct,,,,662.0,,,,,,,,2B,,,,,,,,,,,,yes,,,2022-01-24T19:26:28.000Z,360238,group_2,399732,Memory2/Open3,1,2022-01-24T18:43:56.000Z,,,,not measured,,True
9,Memory 2,4,Memory_2,7,38,,,,,Second,4_2B_memory_3.mp3,4,,,incorrect_left,,,,,,,,,,,,,,,,,,,,,,,,,,,,,,,,,,,,,,Correct,,,,2291.0,,,,,,,,2B,,,,,,,,,,,,yes,,,2022-01-24T19:26:28.000Z,360238,group_2,399732,Memory2/Open3,1,2022-01-24T18:43:56.000Z,,,,not measured,,True
9,Memory 2,4,Memory_2,8,55,,,,,First,2_1B_memory_8.mp3,6,,,incorrect_left,,,,,,,,,,,,,,,,,,,,,,,,,,,,,,,,,,,,,,Incorrect,,,,2549.0,,,,,,,,1B,,,,,,,,,,,,yes,,,2022-01-24T19:26:28.000Z,360238,group_2,399732,Memory2/Open3,1,2022-01-24T18:43:56.000Z,,,,not measured,,True
9,Memory 2,4,Memory_2,9,50,,,,,First,4_1B_memory_5.mp3,5,,,correct_left,,,,,,,,,,,,,,,,,,,,,,,,,,,,,,,,,,,,,,Correct,,,,3240.0,,,,,,,,1B,,,,,,,,,,,,yes,,,2022-01-24T19:26:28.000Z,360238,group_2,399732,Memory2/Open3,1,2022-01-24T18:43:56.000Z,,,,not measured,,True
9,Memory 2,4,Memory_2,10,25,,,,,,2_2B_memory_8.mp3,3,,,correct_left,,,,,,,,,,,,,,,,,,,,,,,,,,,,,,,,,,,,,,,,,,,,,,,,,,2B,,,,,,,,,,,,yes,,,2022-01-24T19:26:28.000Z,360238,group_2,399732,Memory2/Open3,1,2022-01-24T18:43:56.000Z,,,,not measured,,True
9,Memory 2,4,Memory_2,11,51,,,,,Second,2_1B_memory_4.mp3,6,,,incorrect_left,,,,,,,,,,,,,,,,,,,,,,,,,,,,,,,,,,,,,,Correct,,,,790.0,,,,,,,,1B,,,,,,,,,,,,yes,,,2022-01-24T19:26:28.000Z,360238,group_2,399732,Memory2/Open3,1,2022-01-24T18:43:56.000Z,,,,not measured,,True
9,Memory 2,4,Memory_2,12,8,,,,,First,4_8B_memory_3.mp3,1,,,correct_left,,,,,,,,,,,,,,,,,,,,,,,,,,,,,,,,,,,,,,Correct,,,,912.0,,,,,,,,8B,,,,,,,,,,,,yes,,,2022-01-24T19:26:28.000Z,360238,group_2,399732,Memory2/Open3,1,2022-01-24T18:43:56.000Z,,,,not measured,,True
9,Memory 2,4,Memory_2,13,26,,,,,Second,4_2B_memory_1.mp3,3,,,correct_left,,,,,,,,,,,,,,,,,,,,,,,,,,,,,,,,,,,,,,Incorrect,,,,1848.0,,,,,,,,2B,,,,,,,,,,,,yes,,,2022-01-24T19:26:28.000Z,360238,group_2,399732,Memory2/Open3,1,2022-01-24T18:43:56.000Z,,,,not measured,,True
9,Memory 2,4,Memory_2,14,53,,,,,First,2_1B_memory_6.mp3,6,,,incorrect_left,,,,,,,,,,,,,,,,,,,,,,,,,,,,,,,,,,,,,,Incorrect,,,,763.0,,,,,,,,1B,,,,,,,,,,,,yes,,,2022-01-24T19:26:28.000Z,360238,group_2,399732,Memory2/Open3,1,2022-01-24T18:43:56.000Z,,,,not measured,,True
9,Memory 2,4,Memory_2,15,2,,,,,First,2_8B_memory_5.mp3,1,,,correct_left,,,,,,,,,,,,,,,,,,,,,,,,,,,,,,,,,,,,,,Correct,,,,913.0,,,,,,,,8B,,,,,,,,,,,,yes,,,2022-01-24T19:26:28.000Z,360238,group_2,399732,Memory2/Open3,1,2022-01-24T18:43:56.000Z,,,,not measured,,True
9,Memory 2,4,Memory_2,16,14,,,,,Second,2_8B_memory_7.mp3,2,,,incorrect_left,,,,,,,,,,,,,,,,,,,,,,,,,,,,,,,,,,,,,,Correct,,,,660.0,,,,,,,,8B,,,,,,,,,,,,yes,,,2022-01-24T19:26:28.000Z,360238,group_2,399732,Memory2/Open3,1,2022-01-24T18:43:56.000Z,,,,not measured,,True
9,Memory 2,4,Memory_2,17,42,,,,,Second,2_1B_memory_5.mp3,5,,,correct_left,,,,,,,,,,,,,,,,,,,,,,,,,,,,,,,,,,,,,,Incorrect,,,,1280.0,,,,,,,,1B,,,,,,,,,,,,yes,,,2022-01-24T19:26:28.000Z,360238,group_2,399732,Memory2/Open3,1,2022-01-24T18:43:56.000Z,,,,not measured,,True
9,Memory 2,4,Memory_2,18,17,,,,,First,4_8B_memory_2.mp3,2,,,incorrect_left,,,,,,,,,,,,,,,,,,,,,,,,,,,,,,,,,,,,,,Incorrect,,,,2571.0,,,,,,,,8B,,,,,,,,,,,,yes,,,2022-01-24T19:26:28.000Z,360238,group_2,399732,Memory2/Open3,1,2022-01-24T18:43:56.000Z,,,,not measured,,True
9,Memory 2,4,Memory_2,19,15,,,,,Second,2_8B_memory_8.mp3,2,,,incorrect_left,,,,,,,,,,,,,,,,,,,,,,,,,,,,,,,,,,,,,,Correct,,,,1910.0,,,,,,,,8B,,,,,,,,,,,,yes,,,2022-01-24T19:26:28.000Z,360238,group_2,399732,Memory2/Open3,1,2022-01-24T18:43:56.000Z,,,,not measured,,True
9,Memory 2,4,Memory_2,20,6,,,,,First,4_8B_memory_1.mp3,1,,,correct_left,,,,,,,,,,,,,,,,,,,,,,,,,,,,,,,,,,,,,,Correct,,,,1013.0,,,,,,,,8B,,,,,,,,,,,,yes,,,2022-01-24T19:26:28.000Z,360238,group_2,399732,Memory2/Open3,1,2022-01-24T18:43:56.000Z,,,,not measured,,True
9,Memory 2,4,Memory_2,21,1,,,,,First,2_8B_memory_4.mp3,1,,,correct_left,,,,,,,,,,,,,,,,,,,,,,,,,,,,,,,,,,,,,,Correct,,,,2242.0,,,,,,,,8B,,,,,,,,,,,,yes,,,2022-01-24T19:26:28.000Z,360238,group_2,399732,Memory2/Open3,1,2022-01-24T18:43:56.000Z,,,,not measured,,True
9,Memory 2,4,Memory_2,22,30,,,,,First,4_2B_memory_5.mp3,3,,,correct_left,,,,,,,,,,,,,,,,,,,,,,,,,,,,,,,,,,,,,,Correct,,,,650.0,,,,,,,,2B,,,,,,,,,,,,yes,,,2022-01-24T19:26:28.000Z,360238,group_2,399732,Memory2/Open3,1,2022-01-24T18:43:56.000Z,,,,not measured,,True
9,Memory 2,4,Memory_2,23,23,,,,,First,2_2B_memory_6.mp3,3,,,correct_left,,,,,,,,,,,,,,,,,,,,,,,,,,,,,,,,,,,,,,Correct,,,,1077.0,,,,,,,,2B,,,,,,,,,,,,yes,,,2022-01-24T19:26:28.000Z,360238,group_2,399732,Memory2/Open3,1,2022-01-24T18:43:56.000Z,,,,not measured,,True
9,Memory 2,4,Memory_2,24,32,,,,,Second,2_2B_memory_5.mp3,4,,,incorrect_left,,,,,,,,,,,,,,,,,,,,,,,,,,,,,,,,,,,,,,Correct,,,,1870.0,,,,,,,,2B,,,,,,,,,,,,yes,,,2022-01-24T19:26:28.000Z,360238,group_2,399732,Memory2/Open3,1,2022-01-24T18:43:56.000Z,,,,not measured,,True
9,Memory 2,4,Memory_2,25,3,,,,,First,2_8B_memory_6.mp3,1,,,correct_left,,,,,,,,,,,,,,,,,,,,,,,,,,,,,,,,,,,,,,Correct,,,,1595.0,,,,,,,,8B,,,,,,,,,,,,yes,,,2022-01-24T19:26:28.000Z,360238,group_2,399732,Memory2/Open3,1,2022-01-24T18:43:56.000Z,,,,not measured,,True
9,Memory 2,4,Memory_2,26,58,,,,,First,4_1B_memory_3.mp3,6,,,incorrect_left,,,,,,,,,,,,,,,,,,,,,,,,,,,,,,,,,,,,,,Incorrect,,,,2714.0,,,,,,,,1B,,,,,,,,,,,,yes,,,2022-01-24T19:26:28.000Z,360238,group_2,399732,Memory2/Open3,1,2022-01-24T18:43:56.000Z,,,,not measured,,True
9,Memory 2,4,Memory_2,27,59,,,,,Second,4_1B_memory_4.mp3,6,,,incorrect_left,,,,,,,,,,,,,,,,,,,,,,,,,,,,,,,,,,,,,,Correct,,,,1711.0,,,,,,,,1B,,,,,,,,,,,,yes,,,2022-01-24T19:26:28.000Z,360238,group_2,399732,Memory2/Open3,1,2022-01-24T18:43:56.000Z,,,,not measured,,True
9,Memory 2,4,Memory_2,28,37,,,,,First,4_2B_memory_2.mp3,4,,,incorrect_left,,,,,,,,,,,,,,,,,,,,,,,,,,,,,,,,,,,,,,Incorrect,,,,930.0,,,,,,,,2B,,,,,,,,,,,,yes,,,2022-01-24T19:26:28.000Z,360238,group_2,399732,Memory2/Open3,1,2022-01-24T18:43:56.000Z,,,,not measured,,True
9,Memory 2,4,Memory_2,29,9,,,,,Second,4_8B_memory_4.mp3,1,,,correct_left,,,,,,,,,,,,,,,,,,,,,,,,,,,,,,,,,,,,,,Incorrect,,,,754.0,,,,,,,,8B,,,,,,,,,,,,yes,,,2022-01-24T19:26:28.000Z,360238,group_2,399732,Memory2/Open3,1,2022-01-24T18:43:56.000Z,,,,not measured,,True
9,Memory 2,4,Memory_2,30,39,,,,,First,4_2B_memory_4.mp3,4,,,incorrect_left,,,,,,,,,,,,,,,,,,,,,,,,,,,,,,,,,,,,,,Incorrect,,,,651.0,,,,,,,,2B,,,,,,,,,,,,yes,,,2022-01-24T19:26:28.000Z,360238,group_2,399732,Memory2/Open3,1,2022-01-24T18:43:56.000Z,,,,not measured,,True
9,Memory 2,3,Ready?,1,1,,,,,,,1,,,,,,,,,,,,,,,,,,,,,,,,,,,,,,,,,,,,,,,,,,,,,,,,,,,,,,,,,,,,,,,,,yes,,,2022-01-24T19:26:28.000Z,360238,group_2,399732,Memory2/Open3,1,2022-01-24T18:43:56.000Z,,,,not measured,,True
9,Memory 2,2,Practice_Memory,1,5,,,,,First,,2,,,,,,,,,incorrect_correc,,,,,,,,,,,,,,,,,,,,,,,,,,,,,,,,Incorrect,,,,3851.0,,,,,,,,,,,,,,,,,,,,yes,,,2022-01-24T19:26:28.000Z,360238,group_2,399732,Memory2/Open3,1,2022-01-24T18:43:56.000Z,,,,not measured,,True
9,Memory 2,2,Practice_Memory,2,1,,,,,Second,,1,,,,,,,,,correct_incorrect,,,,,,,,,,,,,,,,,,,,,,,,,,,,,,,,Incorrect,,,,1134.0,,,,,,,,,,,,,,,,,,,,yes,,,2022-01-24T19:26:28.000Z,360238,group_2,399732,Memory2/Open3,1,2022-01-24T18:43:56.000Z,,,,not measured,,True
9,Memory 2,2,Practice_Memory,3,3,,,,,Second,,1,,,,,,,,,correct_incorrect,,,,,,,,,,,,,,,,,,,,,,,,,,,,,,,,Incorrect,,,,941.0,,,,,,,,,,,,,,,,,,,,yes,,,2022-01-24T19:26:28.000Z,360238,group_2,399732,Memory2/Open3,1,2022-01-24T18:43:56.000Z,,,,not measured,,True
9,Memory 2,1,Instructions_Memory,1,1,,,,,,,1,,,,,,,,,,,,,,,,,,,,,,,,,,,,,,,,,,,,,,,,,,,,,,,,,,,,,,,,,,,,,,,,,yes,,,2022-01-24T19:26:28.000Z,360238,group_2,399732,Memory2/Open3,1,2022-01-24T18:43:56.000Z,,,,not measured,,True
7,AP_Screen,3,imported_AP_eval,1,1,,,,,,,1,,,,,,,,,,,,,,,,,,,,,,,,,,,,,,,0.0,,,,,,,,,,,,,,,,,,,,,,,,,,,,,,,,,,yes,,,2022-01-24T19:26:28.000Z,360238,group_2,399732,Memory2/Open3,1,2022-01-24T18:43:56.000Z,,,,not measured,,True
7,AP_Screen,2,imported_AP_headphone test,1,3,,,,,,,3,,,,,,,,,,,,one,,,,,,,,,,,,,,,1.0,,,,0.0,,,,,,,,,,,,,,,,,,,,,,,,,,,,,,,,S_O_I,,yes,,,2022-01-24T19:26:28.000Z,360238,group_2,399732,Memory2/Open3,1,2022-01-24T18:43:56.000Z,,,,not measured,,True
7,AP_Screen,2,imported_AP_headphone test,2,5,,,,,,,5,,,,,,,,,,,,two,,,,,,,,,,,,,,,1.0,,,,0.0,,,,,,,,,,,,,,,,,,,,,,,,,,,,,,,,O_S_I,,yes,,,2022-01-24T19:26:28.000Z,360238,group_2,399732,Memory2/Open3,1,2022-01-24T18:43:56.000Z,,,,not measured,,True
7,AP_Screen,2,imported_AP_headphone test,3,1,,,,,,,1,,,,,,,,,,,,three,,,,,,,,,,,,,,,1.0,,,,0.0,,,,,,,,,,,,,,,,,,,,,,,,,,,,,,,,I_O_S,,yes,,,2022-01-24T19:26:28.000Z,360238,group_2,399732,Memory2/Open3,1,2022-01-24T18:43:56.000Z,,,,not measured,,True
7,AP_Screen,2,imported_AP_headphone test,4,4,,,,,,,4,,,,,,,,,,,,one,,,,,,,,,,,,,,,1.0,,,,0.0,,,,,,,,,,,,,,,,,,,,,,,,,,,,,,,,S_I_O,,yes,,,2022-01-24T19:26:28.000Z,360238,group_2,399732,Memory2/Open3,1,2022-01-24T18:43:56.000Z,,,,not measured,,True
7,AP_Screen,2,imported_AP_headphone test,5,2,,,,,,,2,,,,,,,,,,,,two,,,,,,,,,,,,,,,1.0,,,,0.0,,,,,,,,,,,,,,,,,,,,,,,,,,,,,,,,I_S_O,,yes,,,2022-01-24T19:26:28.000Z,360238,group_2,399732,Memory2/Open3,1,2022-01-24T18:43:56.000Z,,,,not measured,,True
7,AP_Screen,2,imported_AP_headphone test,6,6,,,,,,,6,,,,,,,,,,,,three,,,,,,,,,,,,,,,1.0,,,,0.0,,,,,,,,,,,,,,,,,,,,,,,,,,,,,,,,O_I_S,,yes,,,2022-01-24T19:26:28.000Z,360238,group_2,399732,Memory2/Open3,1,2022-01-24T18:43:56.000Z,,,,not measured,,True
7,AP_Screen,1,imported_AP_instruction,1,1,,,,,,,1,,,,,,,,,,,,,,,,,,,,,,,,,,,,,,,,,,,,,,,,,,,,,,,,,,,,,,,,,,,,,,,,,yes,,,2022-01-24T19:26:28.000Z,360238,group_2,399732,Memory2/Open3,1,2022-01-24T18:43:56.000Z,,,,not measured,,True
6,HP_Screen,3,imported_HP Evaluation,1,1,,,,,,,1,,,,,,,,,,,,,,0.0,,,,,,,,,,,,,,,,,,,,,,,,,,,,,,,,,,,,,,,,,,,,,,,,,,,yes,,,2022-01-24T19:26:28.000Z,360238,group_2,399732,Memory2/Open3,1,2022-01-24T18:43:56.000Z,,,,not measured,,True
6,HP_Screen,2,imported_HP Trials,1,6,,,,,,,1,,,,,,,,,,,,,,0.0,,,"""times=;;;;;;;;;;;;;;;;;---values=;;;;;;;;;;;;;;;;;""",hp2.2.flac,,,,,,,,,,,,,,,,,,,,,,,choice 2,,,,,,,,,,,,,,,,,,,hp2.2.flac,,,,,yes,,,2022-01-24T19:26:28.000Z,360238,group_2,399732,Memory2/Open3,1,2022-01-24T18:43:56.000Z,,,,not measured,,True
6,HP_Screen,2,imported_HP Trials,2,3,,,,,,,1,,,,,,,,,,,,,,0.0,,,"""times=;;;;;;;;;;;;;;;;;---values=;;;;;;;;;;;;;;;;;""",hp4.2.flac,,,,,,,,,,,,,,,,,,,,,,,choice 2,,,,,,,,,,,,,,,,,,,hp4.2.flac,,,,,yes,,,2022-01-24T19:26:28.000Z,360238,group_2,399732,Memory2/Open3,1,2022-01-24T18:43:56.000Z,,,,not measured,,True
6,HP_Screen,2,imported_HP Trials,3,2,,,,,,,1,,,,,,,,,,,,,,0.0,,,"""times=;;;;;;;;;;;;;;;;;---values=;;;;;;;;;;;;;;;;;""",hp4.3.flac,,,,,,,,,,,,,,,,,,,,,,,choice 3,,,,,,,,,,,,,,,,,,,hp4.3.flac,,,,,yes,,,2022-01-24T19:26:28.000Z,360238,group_2,399732,Memory2/Open3,1,2022-01-24T18:43:56.000Z,,,,not measured,,True
6,HP_Screen,2,imported_HP Trials,4,1,,,,,,,1,,,,,,,,,,,,,,0.0,,,"""times=;;;;;;;;;;;;;;;;;---values=;;;;;;;;;;;;;;;;;""",hp6.2.flac,,,,,,,,,,,,,,,,,,,,,,,choice 2,,,,,,,,,,,,,,,,,,,hp6.2.flac,,,,,yes,,,2022-01-24T19:26:28.000Z,360238,group_2,399732,Memory2/Open3,1,2022-01-24T18:43:56.000Z,,,,not measured,,True
6,HP_Screen,2,imported_HP Trials,5,5,,,,,,,1,,,,,,,,,,,,,,0.0,,,"""times=;;;;;;;;;;;;;;;;;---values=;;;;;;;;;;;;;;;;;""",hp4.1.flac,,,,,,,,,,,,,,,,,,,,,,,choice 1,,,,,,,,,,,,,,,,,,,hp4.1.flac,,,,,yes,,,2022-01-24T19:26:28.000Z,360238,group_2,399732,Memory2/Open3,1,2022-01-24T18:43:56.000Z,,,,not measured,,True
6,HP_Screen,2,imported_HP Trials,6,4,,,,,,,1,,,,,,,,,,,,,,0.0,,,"""times=;;;;;;;;;;;;;;;;;---values=;;;;;;;;;;;;;;;;;""",hp6.1.flac,,,,,,,,,,,,,,,,,,,,,,,choice 1,,,,,,,,,,,,,,,,,,,hp6.1.flac,,,,,yes,,,2022-01-24T19:26:28.000Z,360238,group_2,399732,Memory2/Open3,1,2022-01-24T18:43:56.000Z,,,,not measured,,True
6,HP_Screen,1,imported_HP Instructions,1,1,,,,,,,1,,,,,,,,,,,,,,,1.0,,,,,,,,,,,,,,,,,,,,,,,,,,,,,,,,,,,,,,,,,,,,,,,,,,yes,,,2022-01-24T19:26:28.000Z,360238,group_2,399732,Memory2/Open3,1,2022-01-24T18:43:56.000Z,,,,not measured,,True
4,GenInstructMemOpen,1,InstructionsMemOpen,1,1,,,,,,,1,,,,,,,,,,,,,,,,,,,,,,,,,,,,,,,,,,,,,,,,,,,,,,,,,,,,,,,,,,,,,,,,,yes,,,2022-01-24T19:26:28.000Z,360238,group_2,399732,Memory2/Open3,1,2022-01-24T18:43:56.000Z,,,,not measured,,True
2,Consent,1,Consent,1,1,,,,,,,1,,,,,,,,,,,,,,,,,,,,,,,,,,,,,,,,,,,,,,,,,,,,,,,,,,,,,,,,,,,,,,,,,yes,,,2022-01-24T19:26:28.000Z,360238,group_2,399732,Memory2/Open3,1,2022-01-24T18:43:56.000Z,,,,not measured,,True
