Block_Nr,Block_Name,Task_Nr,Task_Name,Trial_Nr,Trial_Id,ab_pitch,age_range,answer,best_instru,choice,clip,Condition_Id,conditions,consent,correct_incorrect_m_2,correct_incorrect_m_3,correct_incorrect_mem_1,correct_incorrect_p_1,correct_incorrect_p_2,correct_incorrect_p_3,correct_incorrect_practice_m,correct_incorrect_practice_p,correctCount,decision,earworm,errorCount,exampleCount,familiarity,fileArray,filePick,Frequenc,genre,genre_3,genre_4,hour,imagery,imagery_2,Instr,isCorrect,listen_time,music_theory,name_instru,nrErrors,num_instru,participant_choice,participant_choice_2,participant_choice2,participant_spacePress,participant_spacePress2,played_notplayed,practice_catseg_scramble,relative_pitch,response,response_seg,response_seg2,response_Time2,responseTime,retestCount,scramble_cat_1,scramble_cat_3,scramble_cat_4,scramble_catseg_4,scramble_level,scramble_m_1,scramble_m_2,scramble_m_3,scramble_open_3,scramble_p_1,scramble_p_2,scramble_p_3,set1response,soundName,strategy,time_atClipStart1,toneSequence,always_fullscreen,completed,crowdsourcing_code,crowdsourcing_subj_id,end_time,exp_subject_id,group_name,rec_session_id,session_name,session_nr,start_time,subj_counter_global,subj_counter_per_group,subject_code,time_delay_offset,time_measure_std,unlocked
13,Post-Survey,1,Post-Survey,1,1,No,"Voice 5-11, 15-27 | Piano 8-12, 17-21 | Guitar 13-20 | DAW 11, 15-27",,Voice,,,1,,,,,,,,,,,,,5.0,,,2.0,,,Biweekly,Hip-Hop,"Rock (preference for alternative, punk, shoegaze, metal, post-rock, avant garde)",Electronic (preference for ambient and IDM),5 or more hours,,2.0,10 or more years,,5 hours or more ,1 year,"Voice, Piano, Guitar, Digital Audio Workstations",,4.0,,,,,,option_1,,Yes,,,,,,,,,,,,,,,,,,,,,"I listened for differences in key change or a significant variation of the patterns of notes played in a riff (significant changes in patterns of half notes, quarter notes, eighth notes, et cetera). This was somewhat intuitive, though I consciously listened for said key changes and pattern switch-ups. But the weighting and significance I placed on them was intuitive and partially subjective, based on how moving I felt the changes were.",,,,yes,,,2022-01-24T23:30:31.000Z,360651,group_9,400166,Prediction3/Open2,1,2022-01-24T22:11:27.000Z,,,,not measured,,True
11,OpenEndedSeg_2,4,OpenEndedSeg_2,1,3,,,,,,,1,,,,,,,,,,,,,,,,,,,,,,,,,,,,,,,,,,,,,"""times=1643065803593;1643065871335;1643065881430;1643065887333;1643065892406;1643065896069;1643065899469---values=;17159;27255;33158;38231;41894;45294""",,,,,,,,,,,,,,intact,,,,,,,,,,,,,,yes,,,2022-01-24T23:30:31.000Z,360651,group_9,400166,Prediction3/Open2,1,2022-01-24T22:11:27.000Z,,,,not measured,,True
11,OpenEndedSeg_2,4,OpenEndedSeg_2,2,12,,,,,,,3,,,,,,,,,,,,,,,,,,,,,,,,,,,,,,,,,,,,,"""times=1643065905270;1643065969725;1643065976437;1643065978036;1643065979492;1643065980765;1643065984708;1643065988916;1643065991349;1643065995092;1643065996884;1643066000260;1643066003460;1643066005908;1643066011276;1643066017436---values=;5418;12130;13729;15185;16458;20401;24609;27041;30785;32577;35953;39153;41601;46969;53129""",,,,,,,,,,,,,,2B,,,,,,,,,,,,,,yes,,,2022-01-24T23:30:31.000Z,360651,group_9,400166,Prediction3/Open2,1,2022-01-24T22:11:27.000Z,,,,not measured,,True
11,OpenEndedSeg_2,4,OpenEndedSeg_2,3,9,,,,,,,3,,,,,,,,,,,,,,,,,,,,,,,,,,,,,,,,,,,,,"""times=1643066023764;1643066089155;1643066091227;1643066093451;1643066095339;1643066099611;1643066102107;1643066106003;1643066110707;1643066111722;1643066114115;1643066115827;1643066120139;1643066123564;1643066126587;1643066131331;1643066133691;1643066135843---values=;6316;8388;10612;12500;16772;19268;23164;27868;28883;31276;32988;37300;40725;43748;48492;50852;53004""",,,,,,,,,,,,,,2B,,,,,,,,,,,,,,yes,,,2022-01-24T23:30:31.000Z,360651,group_9,400166,Prediction3/Open2,1,2022-01-24T22:11:27.000Z,,,,not measured,,True
11,OpenEndedSeg_2,4,OpenEndedSeg_2,4,6,,,,,,,2,,,,,,,,,,,,,,,,,,,,,,,,,,,,,,,,,,,,,"""times=1643066142227;1643066213114;1643066216634;1643066221066;1643066226202;1643066230082;1643066234009;1643066242106;1643066247825;1643066255762;1643066258953;1643066273793---values=;3760;7280;11712;16848;20727;24655;32752;38471;46408;49599;64439""",,,,,,,,,,,,,,8B,,,,,,,,,,,,,,yes,,,2022-01-24T23:30:31.000Z,360651,group_9,400166,Prediction3/Open2,1,2022-01-24T22:11:27.000Z,,,,not measured,,True
11,OpenEndedSeg_2,4,OpenEndedSeg_2,5,2,,,,,,,1,,,,,,,,,,,,,,,,,,,,,,,,,,,,,,,,,,,,,"""times=1643066276829;1643066342249;1643066346160;1643066348816;1643066352280;1643066358480;1643066360440;1643066364136;1643066370360;1643066378336;1643066383784;1643066390328;1643066396336---values=;2746;6658;9314;12778;18978;20938;24634;30858;38834;44282;50826;56834""",,,,,,,,,,,,,,intact,,,,,,,,,,,,,,yes,,,2022-01-24T23:30:31.000Z,360651,group_9,400166,Prediction3/Open2,1,2022-01-24T22:11:27.000Z,,,,not measured,,True
11,OpenEndedSeg_2,4,OpenEndedSeg_2,6,14,,,,,,,4,,,,,,,,,,,,,,,,,,,,,,,,,,,,,,,,,,,,,"""times=1643066402575;1643066466831;1643066468790;1643066470447;1643066472630;1643066474511;1643066476551;1643066482376;1643066486551;1643066490350;1643066495479;1643066500974;1643066507847;1643066512486;1643066520959---values=;3130;5089;6746;8929;10810;12850;18675;22850;26649;31778;37273;44146;48785;57258""",,,,,,,,,,,,,,1B,,,,,,,,,,,,,,yes,,,2022-01-24T23:30:31.000Z,360651,group_9,400166,Prediction3/Open2,1,2022-01-24T22:11:27.000Z,,,,not measured,,True
11,OpenEndedSeg_2,4,OpenEndedSeg_2,7,16,,,,,,,4,,,,,,,,,,,,,,,,,,,,,,,,,,,,,,,,,,,,,"""times=1643066525198;1643066591006;1643066595325;1643066597557;1643066599813;1643066603485;1643066611533;1643066613341;1643066616637;1643066619365;1643066622989;1643066625245;1643066628485;1643066631085;1643066634493;1643066639045;1643066642957---values=;4724;9043;11275;13531;17203;25251;27059;30355;33083;36707;38963;42203;44803;48211;52763;56675""",,,,,,,,,,,,,,1B,,,,,,,,,,,,,,yes,,,2022-01-24T23:30:31.000Z,360651,group_9,400166,Prediction3/Open2,1,2022-01-24T22:11:27.000Z,,,,not measured,,True
11,OpenEndedSeg_2,4,OpenEndedSeg_2,8,7,,,,,,,2,,,,,,,,,,,,,,,,,,,,,,,,,,,,,,,,,,,,,"""times=1643066647678;1643066723284;1643066727651;1643066728947;1643066732675;1643066736068;1643066743780;1643066747932;1643066754739;1643066760516---values=;16320;20687;21983;25711;29104;36816;40968;47775;53552""",,,,,,,,,,,,,,8B,,,,,,,,,,,,,,yes,,,2022-01-24T23:30:31.000Z,360651,group_9,400166,Prediction3/Open2,1,2022-01-24T22:11:27.000Z,,,,not measured,,True
11,OpenEndedSeg_2,3,Ready?,1,1,,,,,,,1,,,,,,,,,,,,,,,,,,,,,,,,,,,,,,,,,,,,,,,,,,,,,,,,,,,,,,,,,,,,,,,,,yes,,,2022-01-24T23:30:31.000Z,360651,group_9,400166,Prediction3/Open2,1,2022-01-24T22:11:27.000Z,,,,not measured,,True
11,OpenEndedSeg_2,2,Practice_OpenEnded,1,1,,,,,,,1,,,,,,,,,,,,,,,,,,,,,,,,,,,,,,,,,,,,,"""times=1643065727443;1643065729591;1643065732591;1643065744504;1643065749767;1643065760391;1643065765703;1643065768599;1643065778983;1643065786823;1643065789439---values=7850;9998;12998;24911;30174;40798;46110;49006;59390;67230;69846""",,,,,,,,,,,,,,,,,,,,,,,,,,,,yes,,,2022-01-24T23:30:31.000Z,360651,group_9,400166,Prediction3/Open2,1,2022-01-24T22:11:27.000Z,,,,not measured,,True
11,OpenEndedSeg_2,1,Instructions_Open,1,1,,,,,,,1,,,,,,,,,,,,,,,,,,,,,,,,,,,,,,,,,,,,,,,,,,,,,,,,,,,,,,,,,,,,,,,,,yes,,,2022-01-24T23:30:31.000Z,360651,group_9,400166,Prediction3/Open2,1,2022-01-24T22:11:27.000Z,,,,not measured,,True
9,Prediction3,4,Prediction_3,1,7,,,,,First,4_8B_prediction_6.mp3,1,,,,,,,,correct_left,,,,,,,,,,,,,,,,,,,,,,,,,,,,,,,,,Correct,,,,707.0,,,,,,,,,,,,,8B,,,,,,,yes,,,2022-01-24T23:30:31.000Z,360651,group_9,400166,Prediction3/Open2,1,2022-01-24T22:11:27.000Z,,,,not measured,,True
9,Prediction3,4,Prediction_3,2,54,,,,,,3_1B_prediction_9.mp3,6,,,,,,,,incorrect_left,,,,,,,,,,,,,,,,,,,,,,,,,,,,,,,,,,,,,,,,,,,,,,,,,,1B,,,,,,,yes,,,2022-01-24T23:30:31.000Z,360651,group_9,400166,Prediction3/Open2,1,2022-01-24T22:11:27.000Z,,,,not measured,,True
9,Prediction3,4,Prediction_3,3,15,,,,,Second,3_8B_prediction_2.mp3,2,,,,,,,,incorrect_left,,,,,,,,,,,,,,,,,,,,,,,,,,,,,,,,,Correct,,,,647.0,,,,,,,,,,,,,8B,,,,,,,yes,,,2022-01-24T23:30:31.000Z,360651,group_9,400166,Prediction3/Open2,1,2022-01-24T22:11:27.000Z,,,,not measured,,True
9,Prediction3,4,Prediction_3,4,31,,,,,First,3_2B_prediction_6.mp3,4,,,,,,,,incorrect_left,,,,,,,,,,,,,,,,,,,,,,,,,,,,,,,,,Incorrect,,,,499.0,,,,,,,,,,,,,2B,,,,,,,yes,,,2022-01-24T23:30:31.000Z,360651,group_9,400166,Prediction3/Open2,1,2022-01-24T22:11:27.000Z,,,,not measured,,True
9,Prediction3,4,Prediction_3,5,41,,,,,First,3_1B_prediction_6.mp3,5,,,,,,,,correct_left,,,,,,,,,,,,,,,,,,,,,,,,,,,,,,,,,Correct,,,,464.0,,,,,,,,,,,,,1B,,,,,,,yes,,,2022-01-24T23:30:31.000Z,360651,group_9,400166,Prediction3/Open2,1,2022-01-24T22:11:27.000Z,,,,not measured,,True
9,Prediction3,4,Prediction_3,6,55,,,,,First,3_1B_prediction_10.mp3,6,,,,,,,,incorrect_left,,,,,,,,,,,,,,,,,,,,,,,,,,,,,,,,,Incorrect,,,,580.0,,,,,,,,,,,,,1B,,,,,,,yes,,,2022-01-24T23:30:31.000Z,360651,group_9,400166,Prediction3/Open2,1,2022-01-24T22:11:27.000Z,,,,not measured,,True
9,Prediction3,4,Prediction_3,7,46,,,,,First,4_1B_prediction_5.mp3,5,,,,,,,,correct_left,,,,,,,,,,,,,,,,,,,,,,,,,,,,,,,,,Correct,,,,567.0,,,,,,,,,,,,,1B,,,,,,,yes,,,2022-01-24T23:30:31.000Z,360651,group_9,400166,Prediction3/Open2,1,2022-01-24T22:11:27.000Z,,,,not measured,,True
9,Prediction3,4,Prediction_3,8,20,,,,,Second,4_8B_prediction_9.mp3,2,,,,,,,,incorrect_left,,,,,,,,,,,,,,,,,,,,,,,,,,,,,,,,,Correct,,,,1461.0,,,,,,,,,,,,,8B,,,,,,,yes,,,2022-01-24T23:30:31.000Z,360651,group_9,400166,Prediction3/Open2,1,2022-01-24T22:11:27.000Z,,,,not measured,,True
9,Prediction3,4,Prediction_3,9,47,,,,,First,4_1B_prediction_6.mp3,5,,,,,,,,correct_left,,,,,,,,,,,,,,,,,,,,,,,,,,,,,,,,,Correct,,,,2039.0,,,,,,,,,,,,,1B,,,,,,,yes,,,2022-01-24T23:30:31.000Z,360651,group_9,400166,Prediction3/Open2,1,2022-01-24T22:11:27.000Z,,,,not measured,,True
9,Prediction3,4,Prediction_3,10,37,,,,,Second,4_2B_prediction_6.mp3,4,,,,,,,,incorrect_left,,,,,,,,,,,,,,,,,,,,,,,,,,,,,,,,,Correct,,,,458.0,,,,,,,,,,,,,2B,,,,,,,yes,,,2022-01-24T23:30:31.000Z,360651,group_9,400166,Prediction3/Open2,1,2022-01-24T22:11:27.000Z,,,,not measured,,True
9,Prediction3,4,Prediction_3,11,2,,,,,First,3_8B_prediction_7.mp3,1,,,,,,,,correct_left,,,,,,,,,,,,,,,,,,,,,,,,,,,,,,,,,Correct,,,,604.0,,,,,,,,,,,,,8B,,,,,,,yes,,,2022-01-24T23:30:31.000Z,360651,group_9,400166,Prediction3/Open2,1,2022-01-24T22:11:27.000Z,,,,not measured,,True
9,Prediction3,4,Prediction_3,12,30,,,,,First,4_2B_prediction_9.mp3,3,,,,,,,,correct_left,,,,,,,,,,,,,,,,,,,,,,,,,,,,,,,,,Correct,,,,655.0,,,,,,,,,,,,,2B,,,,,,,yes,,,2022-01-24T23:30:31.000Z,360651,group_9,400166,Prediction3/Open2,1,2022-01-24T22:11:27.000Z,,,,not measured,,True
9,Prediction3,4,Prediction_3,13,23,,,,,Second,3_2B_prediction_8.mp3,3,,,,,,,,correct_left,,,,,,,,,,,,,,,,,,,,,,,,,,,,,,,,,Incorrect,,,,2122.0,,,,,,,,,,,,,2B,,,,,,,yes,,,2022-01-24T23:30:31.000Z,360651,group_9,400166,Prediction3/Open2,1,2022-01-24T22:11:27.000Z,,,,not measured,,True
9,Prediction3,4,Prediction_3,14,26,,,,,First,4_2B_prediction_5.mp3,3,,,,,,,,correct_left,,,,,,,,,,,,,,,,,,,,,,,,,,,,,,,,,Correct,,,,487.0,,,,,,,,,,,,,2B,,,,,,,yes,,,2022-01-24T23:30:31.000Z,360651,group_9,400166,Prediction3/Open2,1,2022-01-24T22:11:27.000Z,,,,not measured,,True
9,Prediction3,4,Prediction_3,15,49,,,,,Second,4_1B_prediction_8.mp3,5,,,,,,,,correct_left,,,,,,,,,,,,,,,,,,,,,,,,,,,,,,,,,Incorrect,,,,1451.0,,,,,,,,,,,,,1B,,,,,,,yes,,,2022-01-24T23:30:31.000Z,360651,group_9,400166,Prediction3/Open2,1,2022-01-24T22:11:27.000Z,,,,not measured,,True
9,Prediction3,4,Prediction_3,16,38,,,,,First,4_2B_prediction_7.mp3,4,,,,,,,,incorrect_left,,,,,,,,,,,,,,,,,,,,,,,,,,,,,,,,,Incorrect,,,,518.0,,,,,,,,,,,,,2B,,,,,,,yes,,,2022-01-24T23:30:31.000Z,360651,group_9,400166,Prediction3/Open2,1,2022-01-24T22:11:27.000Z,,,,not measured,,True
9,Prediction3,4,Prediction_3,17,60,,,,,Second,4_1B_prediction_9.mp3,6,,,,,,,,incorrect_left,,,,,,,,,,,,,,,,,,,,,,,,,,,,,,,,,Correct,,,,849.0,,,,,,,,,,,,,1B,,,,,,,yes,,,2022-01-24T23:30:31.000Z,360651,group_9,400166,Prediction3/Open2,1,2022-01-24T22:11:27.000Z,,,,not measured,,True
9,Prediction3,4,Prediction_3,18,4,,,,,First,3_8B_prediction_9.mp3,1,,,,,,,,correct_left,,,,,,,,,,,,,,,,,,,,,,,,,,,,,,,,,Correct,,,,622.0,,,,,,,,,,,,,8B,,,,,,,yes,,,2022-01-24T23:30:31.000Z,360651,group_9,400166,Prediction3/Open2,1,2022-01-24T22:11:27.000Z,,,,not measured,,True
9,Prediction3,4,Prediction_3,19,58,,,,,First,4_1B_prediction_7.mp3,6,,,,,,,,incorrect_left,,,,,,,,,,,,,,,,,,,,,,,,,,,,,,,,,Incorrect,,,,728.0,,,,,,,,,,,,,1B,,,,,,,yes,,,2022-01-24T23:30:31.000Z,360651,group_9,400166,Prediction3/Open2,1,2022-01-24T22:11:27.000Z,,,,not measured,,True
9,Prediction3,4,Prediction_3,20,25,,,,,Second,3_2B_prediction_10.mp3,3,,,,,,,,correct_left,,,,,,,,,,,,,,,,,,,,,,,,,,,,,,,,,Incorrect,,,,801.0,,,,,,,,,,,,,2B,,,,,,,yes,,,2022-01-24T23:30:31.000Z,360651,group_9,400166,Prediction3/Open2,1,2022-01-24T22:11:27.000Z,,,,not measured,,True
9,Prediction3,4,Prediction_3,21,32,,,,,Second,3_2B_prediction_7.mp3,4,,,,,,,,incorrect_left,,,,,,,,,,,,,,,,,,,,,,,,,,,,,,,,,Correct,,,,600.0,,,,,,,,,,,,,2B,,,,,,,yes,,,2022-01-24T23:30:31.000Z,360651,group_9,400166,Prediction3/Open2,1,2022-01-24T22:11:27.000Z,,,,not measured,,True
9,Prediction3,4,Prediction_3,22,29,,,,,First,4_2B_prediction_8.mp3,3,,,,,,,,correct_left,,,,,,,,,,,,,,,,,,,,,,,,,,,,,,,,,Correct,,,,516.0,,,,,,,,,,,,,2B,,,,,,,yes,,,2022-01-24T23:30:31.000Z,360651,group_9,400166,Prediction3/Open2,1,2022-01-24T22:11:27.000Z,,,,not measured,,True
9,Prediction3,4,Prediction_3,23,19,,,,,First,4_8B_prediction_8.mp3,2,,,,,,,,incorrect_left,,,,,,,,,,,,,,,,,,,,,,,,,,,,,,,,,Incorrect,,,,1359.0,,,,,,,,,,,,,8B,,,,,,,yes,,,2022-01-24T23:30:31.000Z,360651,group_9,400166,Prediction3/Open2,1,2022-01-24T22:11:27.000Z,,,,not measured,,True
9,Prediction3,4,Prediction_3,24,16,,,,,Second,4_8B_prediction_5.mp3,2,,,,,,,,incorrect_left,,,,,,,,,,,,,,,,,,,,,,,,,,,,,,,,,Correct,,,,598.0,,,,,,,,,,,,,8B,,,,,,,yes,,,2022-01-24T23:30:31.000Z,360651,group_9,400166,Prediction3/Open2,1,2022-01-24T22:11:27.000Z,,,,not measured,,True
9,Prediction3,4,Prediction_3,25,11,,,,,Second,3_8B_prediction_6.mp3,2,,,,,,,,incorrect_left,,,,,,,,,,,,,,,,,,,,,,,,,,,,,,,,,Correct,,,,571.0,,,,,,,,,,,,,8B,,,,,,,yes,,,2022-01-24T23:30:31.000Z,360651,group_9,400166,Prediction3/Open2,1,2022-01-24T22:11:27.000Z,,,,not measured,,True
9,Prediction3,4,Prediction_3,26,34,,,,,Second,3_2B_prediction_9.mp3,4,,,,,,,,incorrect_left,,,,,,,,,,,,,,,,,,,,,,,,,,,,,,,,,Correct,,,,1156.0,,,,,,,,,,,,,2B,,,,,,,yes,,,2022-01-24T23:30:31.000Z,360651,group_9,400166,Prediction3/Open2,1,2022-01-24T22:11:27.000Z,,,,not measured,,True
9,Prediction3,4,Prediction_3,27,3,,,,,First,3_8B_prediction_8.mp3,1,,,,,,,,correct_left,,,,,,,,,,,,,,,,,,,,,,,,,,,,,,,,,Correct,,,,652.0,,,,,,,,,,,,,8B,,,,,,,yes,,,2022-01-24T23:30:31.000Z,360651,group_9,400166,Prediction3/Open2,1,2022-01-24T22:11:27.000Z,,,,not measured,,True
9,Prediction3,4,Prediction_3,28,43,,,,,Second,3_1B_prediction_8.mp3,5,,,,,,,,correct_left,,,,,,,,,,,,,,,,,,,,,,,,,,,,,,,,,Incorrect,,,,1696.0,,,,,,,,,,,,,1B,,,,,,,yes,,,2022-01-24T23:30:31.000Z,360651,group_9,400166,Prediction3/Open2,1,2022-01-24T22:11:27.000Z,,,,not measured,,True
9,Prediction3,4,Prediction_3,29,42,,,,,Second,3_1B_prediction_7.mp3,5,,,,,,,,correct_left,,,,,,,,,,,,,,,,,,,,,,,,,,,,,,,,,Incorrect,,,,491.0,,,,,,,,,,,,,1B,,,,,,,yes,,,2022-01-24T23:30:31.000Z,360651,group_9,400166,Prediction3/Open2,1,2022-01-24T22:11:27.000Z,,,,not measured,,True
9,Prediction3,4,Prediction_3,30,18,,,,,Second,4_8B_prediction_7.mp3,2,,,,,,,,incorrect_left,,,,,,,,,,,,,,,,,,,,,,,,,,,,,,,,,Correct,,,,520.0,,,,,,,,,,,,,8B,,,,,,,yes,,,2022-01-24T23:30:31.000Z,360651,group_9,400166,Prediction3/Open2,1,2022-01-24T22:11:27.000Z,,,,not measured,,True
9,Prediction3,3,Ready?,1,1,,,,,,,1,,,,,,,,,,,,,,,,,,,,,,,,,,,,,,,,,,,,,,,,,,,,,,,,,,,,,,,,,,,,,,,,,yes,,,2022-01-24T23:30:31.000Z,360651,group_9,400166,Prediction3/Open2,1,2022-01-24T22:11:27.000Z,,,,not measured,,True
9,Prediction3,2,Practice_Prediction,1,1,,,,,First,,1,,,,,,,,,,correct_incorrect,,,,,,,,,,,,,,,,,,,,,,,,,,,,,,,Correct,,,,1046.0,,,,,,,,,,,,,,,,,,,,yes,,,2022-01-24T23:30:31.000Z,360651,group_9,400166,Prediction3/Open2,1,2022-01-24T22:11:27.000Z,,,,not measured,,True
9,Prediction3,2,Practice_Prediction,2,5,,,,,Second,,2,,,,,,,,,,incorrect_correct,,,,,,,,,,,,,,,,,,,,,,,,,,,,,,,Correct,,,,822.0,,,,,,,,,,,,,,,,,,,,yes,,,2022-01-24T23:30:31.000Z,360651,group_9,400166,Prediction3/Open2,1,2022-01-24T22:11:27.000Z,,,,not measured,,True
9,Prediction3,2,Practice_Prediction,3,3,,,,,First,,1,,,,,,,,,,correct_incorrect,,,,,,,,,,,,,,,,,,,,,,,,,,,,,,,Correct,,,,1234.0,,,,,,,,,,,,,,,,,,,,yes,,,2022-01-24T23:30:31.000Z,360651,group_9,400166,Prediction3/Open2,1,2022-01-24T22:11:27.000Z,,,,not measured,,True
9,Prediction3,1,Instructions_Prediction,1,1,,,,,,,1,,,,,,,,,,,,,,,,,,,,,,,,,,,,,,,,,,,,,,,,,,,,,,,,,,,,,,,,,,,,,,,,,yes,,,2022-01-24T23:30:31.000Z,360651,group_9,400166,Prediction3/Open2,1,2022-01-24T22:11:27.000Z,,,,not measured,,True
7,AP_Screen,3,imported_AP_eval,1,1,,,,,,,1,,,,,,,,,,,,,,,,,,,,,,,,,,,,,,,0.0,,,,,,,,,,,,,,,,,,,,,,,,,,,,,,,,,,yes,,,2022-01-24T23:30:31.000Z,360651,group_9,400166,Prediction3/Open2,1,2022-01-24T22:11:27.000Z,,,,not measured,,True
7,AP_Screen,2,imported_AP_headphone test,1,6,,,,,,,6,,,,,,,,,,,,three,,,,,,,,,,,,,,,1.0,,,,0.0,,,,,,,,,,,,,,,,,,,,,,,,,,,,,,,,O_I_S,,yes,,,2022-01-24T23:30:31.000Z,360651,group_9,400166,Prediction3/Open2,1,2022-01-24T22:11:27.000Z,,,,not measured,,True
7,AP_Screen,2,imported_AP_headphone test,2,1,,,,,,,1,,,,,,,,,,,,three,,,,,,,,,,,,,,,1.0,,,,0.0,,,,,,,,,,,,,,,,,,,,,,,,,,,,,,,,I_O_S,,yes,,,2022-01-24T23:30:31.000Z,360651,group_9,400166,Prediction3/Open2,1,2022-01-24T22:11:27.000Z,,,,not measured,,True
7,AP_Screen,2,imported_AP_headphone test,3,5,,,,,,,5,,,,,,,,,,,,two,,,,,,,,,,,,,,,1.0,,,,0.0,,,,,,,,,,,,,,,,,,,,,,,,,,,,,,,,O_S_I,,yes,,,2022-01-24T23:30:31.000Z,360651,group_9,400166,Prediction3/Open2,1,2022-01-24T22:11:27.000Z,,,,not measured,,True
7,AP_Screen,2,imported_AP_headphone test,4,2,,,,,,,2,,,,,,,,,,,,two,,,,,,,,,,,,,,,1.0,,,,0.0,,,,,,,,,,,,,,,,,,,,,,,,,,,,,,,,I_S_O,,yes,,,2022-01-24T23:30:31.000Z,360651,group_9,400166,Prediction3/Open2,1,2022-01-24T22:11:27.000Z,,,,not measured,,True
7,AP_Screen,2,imported_AP_headphone test,5,3,,,,,,,3,,,,,,,,,,,,one,,,,,,,,,,,,,,,1.0,,,,0.0,,,,,,,,,,,,,,,,,,,,,,,,,,,,,,,,S_O_I,,yes,,,2022-01-24T23:30:31.000Z,360651,group_9,400166,Prediction3/Open2,1,2022-01-24T22:11:27.000Z,,,,not measured,,True
7,AP_Screen,2,imported_AP_headphone test,6,4,,,,,,,4,,,,,,,,,,,,one,,,,,,,,,,,,,,,1.0,,,,0.0,,,,,,,,,,,,,,,,,,,,,,,,,,,,,,,,S_I_O,,yes,,,2022-01-24T23:30:31.000Z,360651,group_9,400166,Prediction3/Open2,1,2022-01-24T22:11:27.000Z,,,,not measured,,True
7,AP_Screen,1,imported_AP_instruction,1,1,,,,,,,1,,,,,,,,,,,,,,,,,,,,,,,,,,,,,,,,,,,,,,,,,,,,,,,,,,,,,,,,,,,,,,,,,yes,,,2022-01-24T23:30:31.000Z,360651,group_9,400166,Prediction3/Open2,1,2022-01-24T22:11:27.000Z,,,,not measured,,True
6,HP_Screen,3,imported_HP Evaluation,1,1,,,,,,,1,,,,,,,,,,,,,,0.0,,,,,,,,,,,,,,,,,,,,,,,,,,,,,,,,,,,,,,,,,,,,,,,,,,,yes,,,2022-01-24T23:30:31.000Z,360651,group_9,400166,Prediction3/Open2,1,2022-01-24T22:11:27.000Z,,,,not measured,,True
6,HP_Screen,2,imported_HP Trials,1,4,,,,,,,1,,,,,,,,,,,,,,0.0,,,"""times=;;;;;;;;;;;;;;;;;---values=;;;;;;;;;;;;;;;;;""",hp6.3.flac,,,,,,,,,,,,,,,,,,,,,,,choice 3,,,,,,,,,,,,,,,,,,,hp6.3.flac,,,,,yes,,,2022-01-24T23:30:31.000Z,360651,group_9,400166,Prediction3/Open2,1,2022-01-24T22:11:27.000Z,,,,not measured,,True
6,HP_Screen,2,imported_HP Trials,2,3,,,,,,,1,,,,,,,,,,,,,,0.0,,,"""times=;;;;;;;;;;;;;;;;;---values=;;;;;;;;;;;;;;;;;""",hp4.1.flac,,,,,,,,,,,,,,,,,,,,,,,choice 1,,,,,,,,,,,,,,,,,,,hp4.1.flac,,,,,yes,,,2022-01-24T23:30:31.000Z,360651,group_9,400166,Prediction3/Open2,1,2022-01-24T22:11:27.000Z,,,,not measured,,True
6,HP_Screen,2,imported_HP Trials,3,6,,,,,,,1,,,,,,,,,,,,,,0.0,,,"""times=;;;;;;;;;;;;;;;;;---values=;;;;;;;;;;;;;;;;;""",hp3.1.flac,,,,,,,,,,,,,,,,,,,,,,,choice 1,,,,,,,,,,,,,,,,,,,hp3.1.flac,,,,,yes,,,2022-01-24T23:30:31.000Z,360651,group_9,400166,Prediction3/Open2,1,2022-01-24T22:11:27.000Z,,,,not measured,,True
6,HP_Screen,2,imported_HP Trials,4,5,,,,,,,1,,,,,,,,,,,,,,0.0,,,"""times=;;;;;;;;;;;;;;;;;---values=;;;;;;;;;;;;;;;;;""",hp2.2.flac,,,,,,,,,,,,,,,,,,,,,,,choice 2,,,,,,,,,,,,,,,,,,,hp2.2.flac,,,,,yes,,,2022-01-24T23:30:31.000Z,360651,group_9,400166,Prediction3/Open2,1,2022-01-24T22:11:27.000Z,,,,not measured,,True
6,HP_Screen,2,imported_HP Trials,5,2,,,,,,,1,,,,,,,,,,,,,,0.0,,,"""times=;;;;;;;;;;;;;;;;;---values=;;;;;;;;;;;;;;;;;""",hp6.2.flac,,,,,,,,,,,,,,,,,,,,,,,choice 2,,,,,,,,,,,,,,,,,,,hp6.2.flac,,,,,yes,,,2022-01-24T23:30:31.000Z,360651,group_9,400166,Prediction3/Open2,1,2022-01-24T22:11:27.000Z,,,,not measured,,True
6,HP_Screen,2,imported_HP Trials,6,1,,,,,,,1,,,,,,,,,,,,,,0.0,,,"""times=;;;;;;;;;;;;;;;;;---values=;;;;;;;;;;;;;;;;;""",hp1.1.flac,,,,,,,,,,,,,,,,,,,,,,,choice 1,,,,,,,,,,,,,,,,,,,hp1.1.flac,,,,,yes,,,2022-01-24T23:30:31.000Z,360651,group_9,400166,Prediction3/Open2,1,2022-01-24T22:11:27.000Z,,,,not measured,,True
6,HP_Screen,1,imported_HP Instructions,1,1,,,,,,,1,,,,,,,,,,,,,,,2.0,,,,,,,,,,,,,,,,,,,,,,,,,,,,,,,,,,,,,,,,,,,,,,,,,,yes,,,2022-01-24T23:30:31.000Z,360651,group_9,400166,Prediction3/Open2,1,2022-01-24T22:11:27.000Z,,,,not measured,,True
4,GenInstructPredOpen,1,InstructionsPredOpen,1,1,,,,,,,1,,,,,,,,,,,,,,,,,,,,,,,,,,,,,,,,,,,,,,,,,,,,,,,,,,,,,,,,,,,,,,,,,yes,,,2022-01-24T23:30:31.000Z,360651,group_9,400166,Prediction3/Open2,1,2022-01-24T22:11:27.000Z,,,,not measured,,True
2,Consent,1,Consent,1,1,,,,,,,1,,,,,,,,,,,,,,,,,,,,,,,,,,,,,,,,,,,,,,,,,,,,,,,,,,,,,,,,,,,,,,,,,yes,,,2022-01-24T23:30:31.000Z,360651,group_9,400166,Prediction3/Open2,1,2022-01-24T22:11:27.000Z,,,,not measured,,True
