Block_Nr,Block_Name,Task_Nr,Task_Name,Trial_Nr,Trial_Id,ab_pitch,age_range,answer,best_instru,choice,clip,Condition_Id,conditions,consent,correct_incorrect_m_2,correct_incorrect_m_3,correct_incorrect_mem_1,correct_incorrect_p_1,correct_incorrect_p_2,correct_incorrect_p_3,correct_incorrect_practice_m,correct_incorrect_practice_p,correctCount,decision,earworm,errorCount,exampleCount,familiarity,fileArray,filePick,Frequenc,genre,genre_3,genre_4,hour,imagery,imagery_2,Instr,isCorrect,listen_time,music_theory,name_instru,nrErrors,num_instru,participant_choice,participant_choice_2,participant_choice2,participant_spacePress,participant_spacePress2,played_notplayed,practice_catseg_scramble,relative_pitch,response,response_seg,response_seg2,response_Time2,responseTime,retestCount,scramble_cat_1,scramble_cat_3,scramble_cat_4,scramble_catseg_4,scramble_level,scramble_m_1,scramble_m_2,scramble_m_3,scramble_open_3,scramble_p_1,scramble_p_2,scramble_p_3,set1response,soundName,strategy,time_atClipStart1,toneSequence,always_fullscreen,completed,crowdsourcing_code,crowdsourcing_subj_id,end_time,exp_subject_id,group_name,rec_session_id,session_name,session_nr,start_time,subj_counter_global,subj_counter_per_group,subject_code,time_delay_offset,time_measure_std,unlocked
13,Post-Survey,1,Post-Survey,1,1,No,2022-06-07,,Voice,,,1,,,,,,,,,,,,,5.0,,,1.0,,,Occasionally,Pop,Rock,Classic,0.5 hours,,3.0,0 years,,15-30 min,0 years,"Voice, flute",,0.0,,,,,,option_1,,Yes,,,,,,,,,,,,,,,,,,,,,I just tried to listen carefully.,,,,yes,,,2022-01-25T16:54:34.000Z,361575,group_6,402024,Memory3/Cat.2,1,2022-01-25T16:01:42.000Z,,,,not measured,,True
11,CategorizationSeg_2,4,CategorizationSeg_2,1,13,,,,,,,4,,,,,,,,,,,,,,,,,,,,,,,,,,,,,,,,,Never,Every 16 seconds (every 8 measures),,,,,,,,Incorrect,Incorrect,2849.0,1383.0,,1B,,,,,,,,,,,,,,,,,,yes,,,2022-01-25T16:54:34.000Z,361575,group_6,402024,Memory3/Cat.2,1,2022-01-25T16:01:42.000Z,,,,not measured,,True
11,CategorizationSeg_2,4,CategorizationSeg_2,2,1,,,,,,,1,,,,,,,,,,,,,,,,,,,,,,,,,,,,,,,,,Every 16 seconds (every 8 measures),Every 16 seconds (every 8 measures),,,,,,,,Incorrect,Incorrect,1951.0,2882.0,,intact,,,,,,,,,,,,,,,,,,yes,,,2022-01-25T16:54:34.000Z,361575,group_6,402024,Memory3/Cat.2,1,2022-01-25T16:01:42.000Z,,,,not measured,,True
11,CategorizationSeg_2,4,CategorizationSeg_2,3,12,,,,,,,3,,,,,,,,,,,,,,,,,,,,,,,,,,,,,,,,,Never,Never,,,,,,,,Incorrect,Incorrect,837.0,1870.0,,2B,,,,,,,,,,,,,,,,,,yes,,,2022-01-25T16:54:34.000Z,361575,group_6,402024,Memory3/Cat.2,1,2022-01-25T16:01:42.000Z,,,,not measured,,True
11,CategorizationSeg_2,4,CategorizationSeg_2,4,9,,,,,,,3,,,,,,,,,,,,,,,,,,,,,,,,,,,,,,,,,Never,Never,,,,,,,,Incorrect,Incorrect,1014.0,2777.0,,2B,,,,,,,,,,,,,,,,,,yes,,,2022-01-25T16:54:34.000Z,361575,group_6,402024,Memory3/Cat.2,1,2022-01-25T16:01:42.000Z,,,,not measured,,True
11,CategorizationSeg_2,4,CategorizationSeg_2,5,15,,,,,,,4,,,,,,,,,,,,,,,,,,,,,,,,,,,,,,,,,Every 16 seconds (every 8 measures),Never,,,,,,,,Incorrect,Incorrect,278.0,1054.0,,1B,,,,,,,,,,,,,,,,,,yes,,,2022-01-25T16:54:34.000Z,361575,group_6,402024,Memory3/Cat.2,1,2022-01-25T16:01:42.000Z,,,,not measured,,True
11,CategorizationSeg_2,4,CategorizationSeg_2,6,5,,,,,,,2,,,,,,,,,,,,,,,,,,,,,,,,,,,,,,,,,Never,Every 16 seconds (every 8 measures),,,,,,,,Incorrect,Correct,1501.0,2211.0,,8B,,,,,,,,,,,,,,,,,,yes,,,2022-01-25T16:54:34.000Z,361575,group_6,402024,Memory3/Cat.2,1,2022-01-25T16:01:42.000Z,,,,not measured,,True
11,CategorizationSeg_2,4,CategorizationSeg_2,7,4,,,,,,,1,,,,,,,,,,,,,,,,,,,,,,,,,,,,,,,,,Never,Every 4 seconds (every 2 measures),,,,,,,,Correct,Incorrect,934.0,3689.0,,intact,,,,,,,,,,,,,,,,,,yes,,,2022-01-25T16:54:34.000Z,361575,group_6,402024,Memory3/Cat.2,1,2022-01-25T16:01:42.000Z,,,,not measured,,True
11,CategorizationSeg_2,4,CategorizationSeg_2,8,6,,,,,,,2,,,,,,,,,,,,,,,,,,,,,,,,,,,,,,,,,Every 16 seconds (every 8 measures),Every 16 seconds (every 8 measures),,,,,,,,Correct,Correct,374.0,1200.0,,8B,,,,,,,,,,,,,,,,,,yes,,,2022-01-25T16:54:34.000Z,361575,group_6,402024,Memory3/Cat.2,1,2022-01-25T16:01:42.000Z,,,,not measured,,True
11,CategorizationSeg_2,3,Ready?,1,1,,,,,,,1,,,,,,,,,,,,,,,,,,,,,,,,,,,,,,,,,,,,,,,,,,,,,,,,,,,,,,,,,,,,,,,,,yes,,,2022-01-25T16:54:34.000Z,361575,group_6,402024,Memory3/Cat.2,1,2022-01-25T16:01:42.000Z,,,,not measured,,True
11,CategorizationSeg_2,2,Practice_Categorization,1,4,,,,,,,4,,,,,,,,,,,,,,,,,,,,,,,,,,,,,,,,,Every 16 seconds (every 8 measures),Never,,,,,1B,,,Incorrect,Incorrect,1876.0,7412.0,,,,,,,,,,,,,,,,,,,,yes,,,2022-01-25T16:54:34.000Z,361575,group_6,402024,Memory3/Cat.2,1,2022-01-25T16:01:42.000Z,,,,not measured,,True
11,CategorizationSeg_2,1,Instructions for Categorization Seg.,1,1,,,,,,,1,,,,,,,,,,,,,,,,,,,,,,,,,,,,,,,,,,,,,,,,,,,,,,,,,,,,,,,,,,,,,,,,,yes,,,2022-01-25T16:54:34.000Z,361575,group_6,402024,Memory3/Cat.2,1,2022-01-25T16:01:42.000Z,,,,not measured,,True
9,Memory3,4,Memory_3,1,60,,,,,First,4_1B_memory_9.mp3,6,,,,incorrect_left,,,,,,,,,,,,,,,,,,,,,,,,,,,,,,,,,,,,,Incorrect,,,,930.0,,,,,,,,,1B,,,,,,,,,,,yes,,,2022-01-25T16:54:34.000Z,361575,group_6,402024,Memory3/Cat.2,1,2022-01-25T16:01:42.000Z,,,,not measured,,True
9,Memory3,4,Memory_3,2,2,,,,,First,3_8B_memory_7.mp3,1,,,,correct_left,,,,,,,,,,,,,,,,,,,,,,,,,,,,,,,,,,,,,Correct,,,,1598.0,,,,,,,,,8B,,,,,,,,,,,yes,,,2022-01-25T16:54:34.000Z,361575,group_6,402024,Memory3/Cat.2,1,2022-01-25T16:01:42.000Z,,,,not measured,,True
9,Memory3,4,Memory_3,3,30,,,,,First,4_2B_memory_9.mp3,3,,,,correct_left,,,,,,,,,,,,,,,,,,,,,,,,,,,,,,,,,,,,,Correct,,,,1691.0,,,,,,,,,2B,,,,,,,,,,,yes,,,2022-01-25T16:54:34.000Z,361575,group_6,402024,Memory3/Cat.2,1,2022-01-25T16:01:42.000Z,,,,not measured,,True
9,Memory3,4,Memory_3,4,11,,,,,Second,3_8B_memory_6.mp3,2,,,,incorrect_left,,,,,,,,,,,,,,,,,,,,,,,,,,,,,,,,,,,,,Correct,,,,907.0,,,,,,,,,8B,,,,,,,,,,,yes,,,2022-01-25T16:54:34.000Z,361575,group_6,402024,Memory3/Cat.2,1,2022-01-25T16:01:42.000Z,,,,not measured,,True
9,Memory3,4,Memory_3,5,54,,,,,Second,3_1B_memory_9.mp3,6,,,,incorrect_left,,,,,,,,,,,,,,,,,,,,,,,,,,,,,,,,,,,,,Correct,,,,1996.0,,,,,,,,,1B,,,,,,,,,,,yes,,,2022-01-25T16:54:34.000Z,361575,group_6,402024,Memory3/Cat.2,1,2022-01-25T16:01:42.000Z,,,,not measured,,True
9,Memory3,4,Memory_3,6,25,,,,,First,3_2B_memory_10.mp3,3,,,,correct_left,,,,,,,,,,,,,,,,,,,,,,,,,,,,,,,,,,,,,Correct,,,,931.0,,,,,,,,,2B,,,,,,,,,,,yes,,,2022-01-25T16:54:34.000Z,361575,group_6,402024,Memory3/Cat.2,1,2022-01-25T16:01:42.000Z,,,,not measured,,True
9,Memory3,4,Memory_3,7,20,,,,,First,4_8B_memory_9.mp3,2,,,,incorrect_left,,,,,,,,,,,,,,,,,,,,,,,,,,,,,,,,,,,,,Incorrect,,,,1779.0,,,,,,,,,8B,,,,,,,,,,,yes,,,2022-01-25T16:54:34.000Z,361575,group_6,402024,Memory3/Cat.2,1,2022-01-25T16:01:42.000Z,,,,not measured,,True
9,Memory3,4,Memory_3,8,27,,,,,First,4_2B_memory_6.mp3,3,,,,correct_left,,,,,,,,,,,,,,,,,,,,,,,,,,,,,,,,,,,,,Correct,,,,1564.0,,,,,,,,,2B,,,,,,,,,,,yes,,,2022-01-25T16:54:34.000Z,361575,group_6,402024,Memory3/Cat.2,1,2022-01-25T16:01:42.000Z,,,,not measured,,True
9,Memory3,4,Memory_3,9,57,,,,,Second,4_1B_memory_6.mp3,6,,,,incorrect_left,,,,,,,,,,,,,,,,,,,,,,,,,,,,,,,,,,,,,Correct,,,,627.0,,,,,,,,,1B,,,,,,,,,,,yes,,,2022-01-25T16:54:34.000Z,361575,group_6,402024,Memory3/Cat.2,1,2022-01-25T16:01:42.000Z,,,,not measured,,True
9,Memory3,4,Memory_3,10,5,,,,,First,3_8B_memory_10.mp3,1,,,,correct_left,,,,,,,,,,,,,,,,,,,,,,,,,,,,,,,,,,,,,Correct,,,,1108.0,,,,,,,,,8B,,,,,,,,,,,yes,,,2022-01-25T16:54:34.000Z,361575,group_6,402024,Memory3/Cat.2,1,2022-01-25T16:01:42.000Z,,,,not measured,,True
9,Memory3,4,Memory_3,11,39,,,,,Second,4_2B_memory_8.mp3,4,,,,incorrect_left,,,,,,,,,,,,,,,,,,,,,,,,,,,,,,,,,,,,,Correct,,,,929.0,,,,,,,,,2B,,,,,,,,,,,yes,,,2022-01-25T16:54:34.000Z,361575,group_6,402024,Memory3/Cat.2,1,2022-01-25T16:01:42.000Z,,,,not measured,,True
9,Memory3,4,Memory_3,12,3,,,,,First,3_8B_memory_8.mp3,1,,,,correct_left,,,,,,,,,,,,,,,,,,,,,,,,,,,,,,,,,,,,,Correct,,,,1003.0,,,,,,,,,8B,,,,,,,,,,,yes,,,2022-01-25T16:54:34.000Z,361575,group_6,402024,Memory3/Cat.2,1,2022-01-25T16:01:42.000Z,,,,not measured,,True
9,Memory3,4,Memory_3,13,19,,,,,Second,4_8B_memory_8.mp3,2,,,,incorrect_left,,,,,,,,,,,,,,,,,,,,,,,,,,,,,,,,,,,,,Correct,,,,1116.0,,,,,,,,,8B,,,,,,,,,,,yes,,,2022-01-25T16:54:34.000Z,361575,group_6,402024,Memory3/Cat.2,1,2022-01-25T16:01:42.000Z,,,,not measured,,True
9,Memory3,4,Memory_3,14,8,,,,,First,4_8B_memory_7.mp3,1,,,,correct_left,,,,,,,,,,,,,,,,,,,,,,,,,,,,,,,,,,,,,Correct,,,,1372.0,,,,,,,,,8B,,,,,,,,,,,yes,,,2022-01-25T16:54:34.000Z,361575,group_6,402024,Memory3/Cat.2,1,2022-01-25T16:01:42.000Z,,,,not measured,,True
9,Memory3,4,Memory_3,15,55,,,,,Second,3_1B_memory_10.mp3,6,,,,incorrect_left,,,,,,,,,,,,,,,,,,,,,,,,,,,,,,,,,,,,,Correct,,,,822.0,,,,,,,,,1B,,,,,,,,,,,yes,,,2022-01-25T16:54:34.000Z,361575,group_6,402024,Memory3/Cat.2,1,2022-01-25T16:01:42.000Z,,,,not measured,,True
9,Memory3,4,Memory_3,16,22,,,,,Second,3_2B_memory_7.mp3,3,,,,correct_left,,,,,,,,,,,,,,,,,,,,,,,,,,,,,,,,,,,,,Incorrect,,,,822.0,,,,,,,,,2B,,,,,,,,,,,yes,,,2022-01-25T16:54:34.000Z,361575,group_6,402024,Memory3/Cat.2,1,2022-01-25T16:01:42.000Z,,,,not measured,,True
9,Memory3,4,Memory_3,17,42,,,,,First,3_1B_memory_7.mp3,5,,,,correct_left,,,,,,,,,,,,,,,,,,,,,,,,,,,,,,,,,,,,,Correct,,,,806.0,,,,,,,,,1B,,,,,,,,,,,yes,,,2022-01-25T16:54:34.000Z,361575,group_6,402024,Memory3/Cat.2,1,2022-01-25T16:01:42.000Z,,,,not measured,,True
9,Memory3,4,Memory_3,18,24,,,,,First,3_2B_memory_9.mp3,3,,,,correct_left,,,,,,,,,,,,,,,,,,,,,,,,,,,,,,,,,,,,,Correct,,,,825.0,,,,,,,,,2B,,,,,,,,,,,yes,,,2022-01-25T16:54:34.000Z,361575,group_6,402024,Memory3/Cat.2,1,2022-01-25T16:01:42.000Z,,,,not measured,,True
9,Memory3,4,Memory_3,19,59,,,,,Second,4_1B_memory_8.mp3,6,,,,incorrect_left,,,,,,,,,,,,,,,,,,,,,,,,,,,,,,,,,,,,,Correct,,,,827.0,,,,,,,,,1B,,,,,,,,,,,yes,,,2022-01-25T16:54:34.000Z,361575,group_6,402024,Memory3/Cat.2,1,2022-01-25T16:01:42.000Z,,,,not measured,,True
9,Memory3,4,Memory_3,20,28,,,,,First,4_2B_memory_7.mp3,3,,,,correct_left,,,,,,,,,,,,,,,,,,,,,,,,,,,,,,,,,,,,,Correct,,,,958.0,,,,,,,,,2B,,,,,,,,,,,yes,,,2022-01-25T16:54:34.000Z,361575,group_6,402024,Memory3/Cat.2,1,2022-01-25T16:01:42.000Z,,,,not measured,,True
9,Memory3,4,Memory_3,21,53,,,,,First,3_1B_memory_8.mp3,6,,,,incorrect_left,,,,,,,,,,,,,,,,,,,,,,,,,,,,,,,,,,,,,Incorrect,,,,1233.0,,,,,,,,,1B,,,,,,,,,,,yes,,,2022-01-25T16:54:34.000Z,361575,group_6,402024,Memory3/Cat.2,1,2022-01-25T16:01:42.000Z,,,,not measured,,True
9,Memory3,4,Memory_3,22,21,,,,,First,3_2B_memory_6.mp3,3,,,,correct_left,,,,,,,,,,,,,,,,,,,,,,,,,,,,,,,,,,,,,Correct,,,,595.0,,,,,,,,,2B,,,,,,,,,,,yes,,,2022-01-25T16:54:34.000Z,361575,group_6,402024,Memory3/Cat.2,1,2022-01-25T16:01:42.000Z,,,,not measured,,True
9,Memory3,4,Memory_3,23,56,,,,,First,4_1B_memory_5.mp3,6,,,,incorrect_left,,,,,,,,,,,,,,,,,,,,,,,,,,,,,,,,,,,,,Incorrect,,,,694.0,,,,,,,,,1B,,,,,,,,,,,yes,,,2022-01-25T16:54:34.000Z,361575,group_6,402024,Memory3/Cat.2,1,2022-01-25T16:01:42.000Z,,,,not measured,,True
9,Memory3,4,Memory_3,24,26,,,,,First,4_2B_memory_5.mp3,3,,,,correct_left,,,,,,,,,,,,,,,,,,,,,,,,,,,,,,,,,,,,,Correct,,,,906.0,,,,,,,,,2B,,,,,,,,,,,yes,,,2022-01-25T16:54:34.000Z,361575,group_6,402024,Memory3/Cat.2,1,2022-01-25T16:01:42.000Z,,,,not measured,,True
9,Memory3,4,Memory_3,25,14,,,,,First,3_8B_memory_9.mp3,2,,,,incorrect_left,,,,,,,,,,,,,,,,,,,,,,,,,,,,,,,,,,,,,Incorrect,,,,1517.0,,,,,,,,,8B,,,,,,,,,,,yes,,,2022-01-25T16:54:34.000Z,361575,group_6,402024,Memory3/Cat.2,1,2022-01-25T16:01:42.000Z,,,,not measured,,True
9,Memory3,4,Memory_3,26,23,,,,,Second,3_2B_memory_8.mp3,3,,,,correct_left,,,,,,,,,,,,,,,,,,,,,,,,,,,,,,,,,,,,,Incorrect,,,,1106.0,,,,,,,,,2B,,,,,,,,,,,yes,,,2022-01-25T16:54:34.000Z,361575,group_6,402024,Memory3/Cat.2,1,2022-01-25T16:01:42.000Z,,,,not measured,,True
9,Memory3,4,Memory_3,27,58,,,,,First,4_1B_memory_7.mp3,6,,,,incorrect_left,,,,,,,,,,,,,,,,,,,,,,,,,,,,,,,,,,,,,Incorrect,,,,1084.0,,,,,,,,,1B,,,,,,,,,,,yes,,,2022-01-25T16:54:34.000Z,361575,group_6,402024,Memory3/Cat.2,1,2022-01-25T16:01:42.000Z,,,,not measured,,True
9,Memory3,4,Memory_3,28,16,,,,,Second,4_8B_memory_5.mp3,2,,,,incorrect_left,,,,,,,,,,,,,,,,,,,,,,,,,,,,,,,,,,,,,Correct,,,,796.0,,,,,,,,,8B,,,,,,,,,,,yes,,,2022-01-25T16:54:34.000Z,361575,group_6,402024,Memory3/Cat.2,1,2022-01-25T16:01:42.000Z,,,,not measured,,True
9,Memory3,4,Memory_3,29,7,,,,,First,4_8B_memory_6.mp3,1,,,,correct_left,,,,,,,,,,,,,,,,,,,,,,,,,,,,,,,,,,,,,Correct,,,,1132.0,,,,,,,,,8B,,,,,,,,,,,yes,,,2022-01-25T16:54:34.000Z,361575,group_6,402024,Memory3/Cat.2,1,2022-01-25T16:01:42.000Z,,,,not measured,,True
9,Memory3,4,Memory_3,30,51,,,,,Second,3_1B_memory_6.mp3,6,,,,incorrect_left,,,,,,,,,,,,,,,,,,,,,,,,,,,,,,,,,,,,,Correct,,,,827.0,,,,,,,,,1B,,,,,,,,,,,yes,,,2022-01-25T16:54:34.000Z,361575,group_6,402024,Memory3/Cat.2,1,2022-01-25T16:01:42.000Z,,,,not measured,,True
9,Memory3,3,Ready?,1,1,,,,,,,1,,,,,,,,,,,,,,,,,,,,,,,,,,,,,,,,,,,,,,,,,,,,,,,,,,,,,,,,,,,,,,,,,yes,,,2022-01-25T16:54:34.000Z,361575,group_6,402024,Memory3/Cat.2,1,2022-01-25T16:01:42.000Z,,,,not measured,,True
9,Memory3,2,Practice_Memory,1,4,,,,,Second,,2,,,,,,,,,incorrect_correc,,,,,,,,,,,,,,,,,,,,,,,,,,,,,,,,Correct,,,,1570.0,,,,,,,,,,,,,,,,,,,,yes,,,2022-01-25T16:54:34.000Z,361575,group_6,402024,Memory3/Cat.2,1,2022-01-25T16:01:42.000Z,,,,not measured,,True
9,Memory3,2,Practice_Memory,2,2,,,,,First,,1,,,,,,,,,correct_incorrect,,,,,,,,,,,,,,,,,,,,,,,,,,,,,,,,Correct,,,,1074.0,,,,,,,,,,,,,,,,,,,,yes,,,2022-01-25T16:54:34.000Z,361575,group_6,402024,Memory3/Cat.2,1,2022-01-25T16:01:42.000Z,,,,not measured,,True
9,Memory3,2,Practice_Memory,3,6,,,,,First,,2,,,,,,,,,incorrect_correc,,,,,,,,,,,,,,,,,,,,,,,,,,,,,,,,Incorrect,,,,2073.0,,,,,,,,,,,,,,,,,,,,yes,,,2022-01-25T16:54:34.000Z,361575,group_6,402024,Memory3/Cat.2,1,2022-01-25T16:01:42.000Z,,,,not measured,,True
9,Memory3,1,Instructions_Memory,1,1,,,,,,,1,,,,,,,,,,,,,,,,,,,,,,,,,,,,,,,,,,,,,,,,,,,,,,,,,,,,,,,,,,,,,,,,,yes,,,2022-01-25T16:54:34.000Z,361575,group_6,402024,Memory3/Cat.2,1,2022-01-25T16:01:42.000Z,,,,not measured,,True
7,HP_Screen,3,imported_HP Evaluation,1,1,,,,,,,1,,,,,,,,,,,,,,0.0,,,,,,,,,,,,,,,,,,,,,,,,,,,,,,,,,,,,,,,,,,,,,,,,,,,yes,,,2022-01-25T16:54:34.000Z,361575,group_6,402024,Memory3/Cat.2,1,2022-01-25T16:01:42.000Z,,,,not measured,,True
7,HP_Screen,2,imported_HP Trials,1,5,,,,,,,1,,,,,,,,,,,,,,0.0,,,"""times=;;;;;;;;;;;;;;;;;---values=;;;;;;;;;;;;;;;;;""",hp6.2.flac,,,,,,,,,,,,,,,,,,,,,,,choice 2,,,,,,,,,,,,,,,,,,,hp6.2.flac,,,,,yes,,,2022-01-25T16:54:34.000Z,361575,group_6,402024,Memory3/Cat.2,1,2022-01-25T16:01:42.000Z,,,,not measured,,True
7,HP_Screen,2,imported_HP Trials,2,6,,,,,,,1,,,,,,,,,,,,,,0.0,,,"""times=;;;;;;;;;;;;;;;;;---values=;;;;;;;;;;;;;;;;;""",hp2.3.flac,,,,,,,,,,,,,,,,,,,,,,,choice 3,,,,,,,,,,,,,,,,,,,hp2.3.flac,,,,,yes,,,2022-01-25T16:54:34.000Z,361575,group_6,402024,Memory3/Cat.2,1,2022-01-25T16:01:42.000Z,,,,not measured,,True
7,HP_Screen,2,imported_HP Trials,3,4,,,,,,,1,,,,,,,,,,,,,,0.0,,,"""times=;;;;;;;;;;;;;;;;;---values=;;;;;;;;;;;;;;;;;""",hp6.1.flac,,,,,,,,,,,,,,,,,,,,,,,choice 1,,,,,,,,,,,,,,,,,,,hp6.1.flac,,,,,yes,,,2022-01-25T16:54:34.000Z,361575,group_6,402024,Memory3/Cat.2,1,2022-01-25T16:01:42.000Z,,,,not measured,,True
7,HP_Screen,2,imported_HP Trials,4,2,,,,,,,1,,,,,,,,,,,,,,0.0,,,"""times=;;;;;;;;;;;;;;;;;---values=;;;;;;;;;;;;;;;;;""",hp3.1.flac,,,,,,,,,,,,,,,,,,,,,,,choice 1,,,,,,,,,,,,,,,,,,,hp3.1.flac,,,,,yes,,,2022-01-25T16:54:34.000Z,361575,group_6,402024,Memory3/Cat.2,1,2022-01-25T16:01:42.000Z,,,,not measured,,True
7,HP_Screen,2,imported_HP Trials,5,3,,,,,,,1,,,,,,,,,,,,,,0.0,,,"""times=;;;;;;;;;;;;;;;;;---values=;;;;;;;;;;;;;;;;;""",hp3.3.flac,,,,,,,,,,,,,,,,,,,,,,,choice 3,,,,,,,,,,,,,,,,,,,hp3.3.flac,,,,,yes,,,2022-01-25T16:54:34.000Z,361575,group_6,402024,Memory3/Cat.2,1,2022-01-25T16:01:42.000Z,,,,not measured,,True
7,HP_Screen,2,imported_HP Trials,6,1,,,,,,,1,,,,,,,,,,,,,,0.0,,,"""times=;;;;;;;;;;;;;;;;;---values=;;;;;;;;;;;;;;;;;""",hp5.1.flac,,,,,,,,,,,,,,,,,,,,,,,choice 1,,,,,,,,,,,,,,,,,,,hp5.1.flac,,,,,yes,,,2022-01-25T16:54:34.000Z,361575,group_6,402024,Memory3/Cat.2,1,2022-01-25T16:01:42.000Z,,,,not measured,,True
7,HP_Screen,1,imported_HP Instructions,1,1,,,,,,,1,,,,,,,,,,,,,,,1.0,,,,,,,,,,,,,,,,,,,,,,,,,,,,,,,,,,,,,,,,,,,,,,,,,,yes,,,2022-01-25T16:54:34.000Z,361575,group_6,402024,Memory3/Cat.2,1,2022-01-25T16:01:42.000Z,,,,not measured,,True
6,AP_Screen,3,imported_AP_eval,1,1,,,,,,,1,,,,,,,,,,,,,,,,,,,,,,,,,,,,,,,0.0,,,,,,,,,,,,,,,,,,,,,,,,,,,,,,,,,,yes,,,2022-01-25T16:54:34.000Z,361575,group_6,402024,Memory3/Cat.2,1,2022-01-25T16:01:42.000Z,,,,not measured,,True
6,AP_Screen,2,imported_AP_headphone test,1,4,,,,,,,4,,,,,,,,,,,,one,,,,,,,,,,,,,,,1.0,,,,0.0,,,,,,,,,,,,,,,,,,,,,,,,,,,,,,,,S_I_O,,yes,,,2022-01-25T16:54:34.000Z,361575,group_6,402024,Memory3/Cat.2,1,2022-01-25T16:01:42.000Z,,,,not measured,,True
6,AP_Screen,2,imported_AP_headphone test,2,3,,,,,,,3,,,,,,,,,,,,one,,,,,,,,,,,,,,,1.0,,,,0.0,,,,,,,,,,,,,,,,,,,,,,,,,,,,,,,,S_O_I,,yes,,,2022-01-25T16:54:34.000Z,361575,group_6,402024,Memory3/Cat.2,1,2022-01-25T16:01:42.000Z,,,,not measured,,True
6,AP_Screen,2,imported_AP_headphone test,3,1,,,,,,,1,,,,,,,,,,,,three,,,,,,,,,,,,,,,1.0,,,,0.0,,,,,,,,,,,,,,,,,,,,,,,,,,,,,,,,I_O_S,,yes,,,2022-01-25T16:54:34.000Z,361575,group_6,402024,Memory3/Cat.2,1,2022-01-25T16:01:42.000Z,,,,not measured,,True
6,AP_Screen,2,imported_AP_headphone test,4,6,,,,,,,6,,,,,,,,,,,,three,,,,,,,,,,,,,,,1.0,,,,0.0,,,,,,,,,,,,,,,,,,,,,,,,,,,,,,,,O_I_S,,yes,,,2022-01-25T16:54:34.000Z,361575,group_6,402024,Memory3/Cat.2,1,2022-01-25T16:01:42.000Z,,,,not measured,,True
6,AP_Screen,2,imported_AP_headphone test,5,5,,,,,,,5,,,,,,,,,,,,two,,,,,,,,,,,,,,,1.0,,,,0.0,,,,,,,,,,,,,,,,,,,,,,,,,,,,,,,,O_S_I,,yes,,,2022-01-25T16:54:34.000Z,361575,group_6,402024,Memory3/Cat.2,1,2022-01-25T16:01:42.000Z,,,,not measured,,True
6,AP_Screen,2,imported_AP_headphone test,6,2,,,,,,,2,,,,,,,,,,,,two,,,,,,,,,,,,,,,1.0,,,,0.0,,,,,,,,,,,,,,,,,,,,,,,,,,,,,,,,I_S_O,,yes,,,2022-01-25T16:54:34.000Z,361575,group_6,402024,Memory3/Cat.2,1,2022-01-25T16:01:42.000Z,,,,not measured,,True
6,AP_Screen,1,imported_AP_instruction,1,1,,,,,,,1,,,,,,,,,,,,,,,,,,,,,,,,,,,,,,,,,,,,,,,,,,,,,,,,,,,,,,,,,,,,,,,,,yes,,,2022-01-25T16:54:34.000Z,361575,group_6,402024,Memory3/Cat.2,1,2022-01-25T16:01:42.000Z,,,,not measured,,True
4,GenInstructMemCat,1,InstructionsMemCat,1,1,,,,,,,1,,,,,,,,,,,,,,,,,,,,,,,,,,,,,,,,,,,,,,,,,,,,,,,,,,,,,,,,,,,,,,,,,yes,,,2022-01-25T16:54:34.000Z,361575,group_6,402024,Memory3/Cat.2,1,2022-01-25T16:01:42.000Z,,,,not measured,,True
2,Consent,1,Consent,1,1,,,,,,,1,,,,,,,,,,,,,,,,,,,,,,,,,,,,,,,,,,,,,,,,,,,,,,,,,,,,,,,,,,,,,,,,,yes,,,2022-01-25T16:54:34.000Z,361575,group_6,402024,Memory3/Cat.2,1,2022-01-25T16:01:42.000Z,,,,not measured,,True
