Block_Nr,Block_Name,Task_Nr,Task_Name,Trial_Nr,Trial_Id,ab_pitch,age_range,answer,best_instru,choice,clip,Condition_Id,conditions,consent,correct_incorrect_m_2,correct_incorrect_m_3,correct_incorrect_mem_1,correct_incorrect_p_1,correct_incorrect_p_2,correct_incorrect_p_3,correct_incorrect_practice_m,correct_incorrect_practice_p,correctCount,decision,earworm,errorCount,exampleCount,familiarity,fileArray,filePick,Frequenc,genre,genre_3,genre_4,hour,imagery,imagery_2,Instr,isCorrect,listen_time,music_theory,name_instru,nrErrors,num_instru,participant_choice,participant_choice_2,participant_choice2,participant_spacePress,participant_spacePress2,played_notplayed,practice_catseg_scramble,relative_pitch,response,response_seg,response_seg2,response_Time2,responseTime,retestCount,scramble_cat_1,scramble_cat_3,scramble_cat_4,scramble_catseg_4,scramble_level,scramble_m_1,scramble_m_2,scramble_m_3,scramble_open_3,scramble_p_1,scramble_p_2,scramble_p_3,set1response,soundName,strategy,time_atClipStart1,toneSequence,always_fullscreen,completed,crowdsourcing_code,crowdsourcing_subj_id,end_time,exp_subject_id,group_name,rec_session_id,session_name,session_nr,start_time,subj_counter_global,subj_counter_per_group,subject_code,time_delay_offset,time_measure_std,unlocked
13,Post-Survey,1,Post-Survey,1,1,Yes,13-16,,flute,,,1,,,,,,,,,,,,,4.0,,,1.0,,,Occasionally,rock,pop,latin,1 hour,,4.0,3 years,,60-90 min,3 years,flute,,1.0,,,,,,option_1,,Yes,,,,,,,,,,,,,,,,,,,,,I measured in my mind the approximate time for each change ,,,,yes,,,2022-01-25T20:13:34.000Z,361851,group_11,402318,Prediction2/Cat.3,1,2022-01-25T19:13:28.000Z,,,,not measured,,True
11,CategorizationSeg_3,4,CategorizationSeg_3,1,8,,,,,,,2,,,,,,,,,,,,,,,,,,,,,,,,,,,,,,,,,Every 16 seconds (every 8 measures),Every 16 seconds (every 8 measures),,,,,,,,Correct,Correct,2652.0,2815.0,,,8B,,,,,,,,,,,,,,,,,yes,,,2022-01-25T20:13:34.000Z,361851,group_11,402318,Prediction2/Cat.3,1,2022-01-25T19:13:28.000Z,,,,not measured,,True
11,CategorizationSeg_3,4,CategorizationSeg_3,2,6,,,,,,,2,,,,,,,,,,,,,,,,,,,,,,,,,,,,,,,,,Never,Every 2 seconds (every 1 measure),,,,,,,,Incorrect,Incorrect,2608.0,3540.0,,,8B,,,,,,,,,,,,,,,,,yes,,,2022-01-25T20:13:34.000Z,361851,group_11,402318,Prediction2/Cat.3,1,2022-01-25T19:13:28.000Z,,,,not measured,,True
11,CategorizationSeg_3,4,CategorizationSeg_3,3,13,,,,,,,4,,,,,,,,,,,,,,,,,,,,,,,,,,,,,,,,,Every 2 seconds (every 1 measure),Every 2 seconds (every 1 measure),,,,,,,,Correct,Correct,1736.0,2190.0,,,1B,,,,,,,,,,,,,,,,,yes,,,2022-01-25T20:13:34.000Z,361851,group_11,402318,Prediction2/Cat.3,1,2022-01-25T19:13:28.000Z,,,,not measured,,True
11,CategorizationSeg_3,4,CategorizationSeg_3,4,10,,,,,,,3,,,,,,,,,,,,,,,,,,,,,,,,,,,,,,,,,Every 4 seconds (every 2 measures),Every 4 seconds (every 2 measures),,,,,,,,Correct,Correct,1658.0,1809.0,,,2B,,,,,,,,,,,,,,,,,yes,,,2022-01-25T20:13:34.000Z,361851,group_11,402318,Prediction2/Cat.3,1,2022-01-25T19:13:28.000Z,,,,not measured,,True
11,CategorizationSeg_3,4,CategorizationSeg_3,5,16,,,,,,,4,,,,,,,,,,,,,,,,,,,,,,,,,,,,,,,,,Every 2 seconds (every 1 measure),Every 2 seconds (every 1 measure),,,,,,,,Correct,Correct,2099.0,1755.0,,,1B,,,,,,,,,,,,,,,,,yes,,,2022-01-25T20:13:34.000Z,361851,group_11,402318,Prediction2/Cat.3,1,2022-01-25T19:13:28.000Z,,,,not measured,,True
11,CategorizationSeg_3,4,CategorizationSeg_3,6,3,,,,,,,1,,,,,,,,,,,,,,,,,,,,,,,,,,,,,,,,,Never,Never,,,,,,,,Correct,Correct,1503.0,1442.0,,,intact,,,,,,,,,,,,,,,,,yes,,,2022-01-25T20:13:34.000Z,361851,group_11,402318,Prediction2/Cat.3,1,2022-01-25T19:13:28.000Z,,,,not measured,,True
11,CategorizationSeg_3,4,CategorizationSeg_3,7,4,,,,,,,1,,,,,,,,,,,,,,,,,,,,,,,,,,,,,,,,,Never,Never,,,,,,,,Correct,Correct,1086.0,1384.0,,,intact,,,,,,,,,,,,,,,,,yes,,,2022-01-25T20:13:34.000Z,361851,group_11,402318,Prediction2/Cat.3,1,2022-01-25T19:13:28.000Z,,,,not measured,,True
11,CategorizationSeg_3,4,CategorizationSeg_3,8,11,,,,,,,3,,,,,,,,,,,,,,,,,,,,,,,,,,,,,,,,,Every 4 seconds (every 2 measures),Every 4 seconds (every 2 measures),,,,,,,,Correct,Correct,1948.0,2082.0,,,2B,,,,,,,,,,,,,,,,,yes,,,2022-01-25T20:13:34.000Z,361851,group_11,402318,Prediction2/Cat.3,1,2022-01-25T19:13:28.000Z,,,,not measured,,True
11,CategorizationSeg_3,3,Ready?,1,1,,,,,,,1,,,,,,,,,,,,,,,,,,,,,,,,,,,,,,,,,,,,,,,,,,,,,,,,,,,,,,,,,,,,,,,,,yes,,,2022-01-25T20:13:34.000Z,361851,group_11,402318,Prediction2/Cat.3,1,2022-01-25T19:13:28.000Z,,,,not measured,,True
11,CategorizationSeg_3,2,Practice_Categorization,1,1,,,,,,,1,,,,,,,,,,,,,,,,,,,,,,,,,,,,,,,,,Every 4 seconds (every 2 measures),Every 16 seconds (every 8 measures),,,,,intact,,,Incorrect,Incorrect,3098.0,5923.0,,,,,,,,,,,,,,,,,,,,yes,,,2022-01-25T20:13:34.000Z,361851,group_11,402318,Prediction2/Cat.3,1,2022-01-25T19:13:28.000Z,,,,not measured,,True
11,CategorizationSeg_3,1,Instructions for Categorization Seg.,1,1,,,,,,,1,,,,,,,,,,,,,,,,,,,,,,,,,,,,,,,,,,,,,,,,,,,,,,,,,,,,,,,,,,,,,,,,,yes,,,2022-01-25T20:13:34.000Z,361851,group_11,402318,Prediction2/Cat.3,1,2022-01-25T19:13:28.000Z,,,,not measured,,True
9,Prediction 2,4,Prediction_2,1,55,,,,,Second,2_1B_prediction_8.mp3,6,,,,,,,incorrect_left,,,,,,,,,,,,,,,,,,,,,,,,,,,,,,,,,,Correct,,,,1047.0,,,,,,,,,,,,1B,,,,,,,,yes,,,2022-01-25T20:13:34.000Z,361851,group_11,402318,Prediction2/Cat.3,1,2022-01-25T19:13:28.000Z,,,,not measured,,True
9,Prediction 2,4,Prediction_2,2,19,,,,,First,4_8B_prediction_4.mp3,2,,,,,,,incorrect_left,,,,,,,,,,,,,,,,,,,,,,,,,,,,,,,,,,Incorrect,,,,1088.0,,,,,,,,,,,,8B,,,,,,,,yes,,,2022-01-25T20:13:34.000Z,361851,group_11,402318,Prediction2/Cat.3,1,2022-01-25T19:13:28.000Z,,,,not measured,,True
9,Prediction 2,4,Prediction_2,3,38,,,,,Second,4_2B_prediction_3.mp3,4,,,,,,,incorrect_left,,,,,,,,,,,,,,,,,,,,,,,,,,,,,,,,,,Correct,,,,3272.0,,,,,,,,,,,,2B,,,,,,,,yes,,,2022-01-25T20:13:34.000Z,361851,group_11,402318,Prediction2/Cat.3,1,2022-01-25T19:13:28.000Z,,,,not measured,,True
9,Prediction 2,4,Prediction_2,4,33,,,,,First,2_2B_prediction_6.mp3,4,,,,,,,incorrect_left,,,,,,,,,,,,,,,,,,,,,,,,,,,,,,,,,,Incorrect,,,,2821.0,,,,,,,,,,,,2B,,,,,,,,yes,,,2022-01-25T20:13:34.000Z,361851,group_11,402318,Prediction2/Cat.3,1,2022-01-25T19:13:28.000Z,,,,not measured,,True
9,Prediction 2,4,Prediction_2,5,43,,,,,,2_1B_prediction_6.mp3,5,,,,,,,correct_left,,,,,,,,,,,,,,,,,,,,,,,,,,,,,,,,,,,,,,,,,,,,,,,,,,1B,,,,,,,,yes,,,2022-01-25T20:13:34.000Z,361851,group_11,402318,Prediction2/Cat.3,1,2022-01-25T19:13:28.000Z,,,,not measured,,True
9,Prediction 2,4,Prediction_2,6,16,,,,,Second,4_8B_prediction_1.mp3,2,,,,,,,incorrect_left,,,,,,,,,,,,,,,,,,,,,,,,,,,,,,,,,,Correct,,,,834.0,,,,,,,,,,,,8B,,,,,,,,yes,,,2022-01-25T20:13:34.000Z,361851,group_11,402318,Prediction2/Cat.3,1,2022-01-25T19:13:28.000Z,,,,not measured,,True
9,Prediction 2,4,Prediction_2,7,32,,,,,Second,2_2B_prediction_5.mp3,4,,,,,,,incorrect_left,,,,,,,,,,,,,,,,,,,,,,,,,,,,,,,,,,Correct,,,,2472.0,,,,,,,,,,,,2B,,,,,,,,yes,,,2022-01-25T20:13:34.000Z,361851,group_11,402318,Prediction2/Cat.3,1,2022-01-25T19:13:28.000Z,,,,not measured,,True
9,Prediction 2,4,Prediction_2,8,27,,,,,First,4_2B_prediction_2.mp3,3,,,,,,,correct_left,,,,,,,,,,,,,,,,,,,,,,,,,,,,,,,,,,Correct,,,,3025.0,,,,,,,,,,,,2B,,,,,,,,yes,,,2022-01-25T20:13:34.000Z,361851,group_11,402318,Prediction2/Cat.3,1,2022-01-25T19:13:28.000Z,,,,not measured,,True
9,Prediction 2,4,Prediction_2,9,10,,,,,First,4_8B_prediction_8.mp3,1,,,,,,,correct_left,,,,,,,,,,,,,,,,,,,,,,,,,,,,,,,,,,Correct,,,,975.0,,,,,,,,,,,,8B,,,,,,,,yes,,,2022-01-25T20:13:34.000Z,361851,group_11,402318,Prediction2/Cat.3,1,2022-01-25T19:13:28.000Z,,,,not measured,,True
9,Prediction 2,4,Prediction_2,10,40,,,,,Second,4_2B_prediction_5.mp3,4,,,,,,,incorrect_left,,,,,,,,,,,,,,,,,,,,,,,,,,,,,,,,,,Correct,,,,1072.0,,,,,,,,,,,,2B,,,,,,,,yes,,,2022-01-25T20:13:34.000Z,361851,group_11,402318,Prediction2/Cat.3,1,2022-01-25T19:13:28.000Z,,,,not measured,,True
9,Prediction 2,4,Prediction_2,11,1,,,,,First,2_8B_prediction_4.mp3,1,,,,,,,correct_left,,,,,,,,,,,,,,,,,,,,,,,,,,,,,,,,,,Correct,,,,1215.0,,,,,,,,,,,,8B,,,,,,,,yes,,,2022-01-25T20:13:34.000Z,361851,group_11,402318,Prediction2/Cat.3,1,2022-01-25T19:13:28.000Z,,,,not measured,,True
9,Prediction 2,4,Prediction_2,12,15,,,,,Second,2_8B_prediction_8.mp3,2,,,,,,,incorrect_left,,,,,,,,,,,,,,,,,,,,,,,,,,,,,,,,,,Correct,,,,943.0,,,,,,,,,,,,8B,,,,,,,,yes,,,2022-01-25T20:13:34.000Z,361851,group_11,402318,Prediction2/Cat.3,1,2022-01-25T19:13:28.000Z,,,,not measured,,True
9,Prediction 2,4,Prediction_2,13,14,,,,,Second,2_8B_prediction_7.mp3,2,,,,,,,incorrect_left,,,,,,,,,,,,,,,,,,,,,,,,,,,,,,,,,,Correct,,,,1251.0,,,,,,,,,,,,8B,,,,,,,,yes,,,2022-01-25T20:13:34.000Z,361851,group_11,402318,Prediction2/Cat.3,1,2022-01-25T19:13:28.000Z,,,,not measured,,True
9,Prediction 2,4,Prediction_2,14,59,,,,,First,4_1B_prediction_4.mp3,6,,,,,,,incorrect_left,,,,,,,,,,,,,,,,,,,,,,,,,,,,,,,,,,Incorrect,,,,1638.0,,,,,,,,,,,,1B,,,,,,,,yes,,,2022-01-25T20:13:34.000Z,361851,group_11,402318,Prediction2/Cat.3,1,2022-01-25T19:13:28.000Z,,,,not measured,,True
9,Prediction 2,4,Prediction_2,15,24,,,,,Second,2_2B_prediction_7.mp3,3,,,,,,,correct_left,,,,,,,,,,,,,,,,,,,,,,,,,,,,,,,,,,Incorrect,,,,2270.0,,,,,,,,,,,,2B,,,,,,,,yes,,,2022-01-25T20:13:34.000Z,361851,group_11,402318,Prediction2/Cat.3,1,2022-01-25T19:13:28.000Z,,,,not measured,,True
9,Prediction 2,4,Prediction_2,16,57,,,,,First,4_1B_prediction_2.mp3,6,,,,,,,incorrect_left,,,,,,,,,,,,,,,,,,,,,,,,,,,,,,,,,,Incorrect,,,,1251.0,,,,,,,,,,,,1B,,,,,,,,yes,,,2022-01-25T20:13:34.000Z,361851,group_11,402318,Prediction2/Cat.3,1,2022-01-25T19:13:28.000Z,,,,not measured,,True
9,Prediction 2,4,Prediction_2,17,48,,,,,Second,4_1B_prediction_3.mp3,5,,,,,,,correct_left,,,,,,,,,,,,,,,,,,,,,,,,,,,,,,,,,,Incorrect,,,,1184.0,,,,,,,,,,,,1B,,,,,,,,yes,,,2022-01-25T20:13:34.000Z,361851,group_11,402318,Prediction2/Cat.3,1,2022-01-25T19:13:28.000Z,,,,not measured,,True
9,Prediction 2,4,Prediction_2,18,7,,,,,First,4_8B_prediction_2.mp3,1,,,,,,,correct_left,,,,,,,,,,,,,,,,,,,,,,,,,,,,,,,,,,Correct,,,,1111.0,,,,,,,,,,,,8B,,,,,,,,yes,,,2022-01-25T20:13:34.000Z,361851,group_11,402318,Prediction2/Cat.3,1,2022-01-25T19:13:28.000Z,,,,not measured,,True
9,Prediction 2,4,Prediction_2,19,41,,,,,Second,2_1B_prediction_4.mp3,5,,,,,,,correct_left,,,,,,,,,,,,,,,,,,,,,,,,,,,,,,,,,,Incorrect,,,,1404.0,,,,,,,,,,,,1B,,,,,,,,yes,,,2022-01-25T20:13:34.000Z,361851,group_11,402318,Prediction2/Cat.3,1,2022-01-25T19:13:28.000Z,,,,not measured,,True
9,Prediction 2,4,Prediction_2,20,31,,,,,First,2_2B_prediction_4.mp3,4,,,,,,,incorrect_left,,,,,,,,,,,,,,,,,,,,,,,,,,,,,,,,,,Incorrect,,,,3875.0,,,,,,,,,,,,2B,,,,,,,,yes,,,2022-01-25T20:13:34.000Z,361851,group_11,402318,Prediction2/Cat.3,1,2022-01-25T19:13:28.000Z,,,,not measured,,True
9,Prediction 2,4,Prediction_2,21,2,,,,,First,2_8B_prediction_5.mp3,1,,,,,,,correct_left,,,,,,,,,,,,,,,,,,,,,,,,,,,,,,,,,,Correct,,,,937.0,,,,,,,,,,,,8B,,,,,,,,yes,,,2022-01-25T20:13:34.000Z,361851,group_11,402318,Prediction2/Cat.3,1,2022-01-25T19:13:28.000Z,,,,not measured,,True
9,Prediction 2,4,Prediction_2,22,44,,,,,First,2_1B_prediction_7.mp3,5,,,,,,,correct_left,,,,,,,,,,,,,,,,,,,,,,,,,,,,,,,,,,Correct,,,,2228.0,,,,,,,,,,,,1B,,,,,,,,yes,,,2022-01-25T20:13:34.000Z,361851,group_11,402318,Prediction2/Cat.3,1,2022-01-25T19:13:28.000Z,,,,not measured,,True
9,Prediction 2,4,Prediction_2,23,13,,,,,First,2_8B_prediction_6.mp3,2,,,,,,,incorrect_left,,,,,,,,,,,,,,,,,,,,,,,,,,,,,,,,,,Incorrect,,,,2411.0,,,,,,,,,,,,8B,,,,,,,,yes,,,2022-01-25T20:13:34.000Z,361851,group_11,402318,Prediction2/Cat.3,1,2022-01-25T19:13:28.000Z,,,,not measured,,True
9,Prediction 2,4,Prediction_2,24,25,,,,,Second,2_2B_prediction_8.mp3,3,,,,,,,correct_left,,,,,,,,,,,,,,,,,,,,,,,,,,,,,,,,,,Incorrect,,,,1120.0,,,,,,,,,,,,2B,,,,,,,,yes,,,2022-01-25T20:13:34.000Z,361851,group_11,402318,Prediction2/Cat.3,1,2022-01-25T19:13:28.000Z,,,,not measured,,True
9,Prediction 2,4,Prediction_2,25,8,,,,,First,4_8B_prediction_3.mp3,1,,,,,,,correct_left,,,,,,,,,,,,,,,,,,,,,,,,,,,,,,,,,,Correct,,,,1053.0,,,,,,,,,,,,8B,,,,,,,,yes,,,2022-01-25T20:13:34.000Z,361851,group_11,402318,Prediction2/Cat.3,1,2022-01-25T19:13:28.000Z,,,,not measured,,True
9,Prediction 2,4,Prediction_2,26,26,,,,,,4_2B_prediction_1.mp3,3,,,,,,,correct_left,,,,,,,,,,,,,,,,,,,,,,,,,,,,,,,,,,,,,,,,,,,,,,,,,,2B,,,,,,,,yes,,,2022-01-25T20:13:34.000Z,361851,group_11,402318,Prediction2/Cat.3,1,2022-01-25T19:13:28.000Z,,,,not measured,,True
9,Prediction 2,4,Prediction_2,27,52,,,,,First,2_1B_prediction_5.mp3,6,,,,,,,incorrect_left,,,,,,,,,,,,,,,,,,,,,,,,,,,,,,,,,,Incorrect,,,,863.0,,,,,,,,,,,,1B,,,,,,,,yes,,,2022-01-25T20:13:34.000Z,361851,group_11,402318,Prediction2/Cat.3,1,2022-01-25T19:13:28.000Z,,,,not measured,,True
9,Prediction 2,4,Prediction_2,28,60,,,,,First,4_1B_prediction_5.mp3,6,,,,,,,incorrect_left,,,,,,,,,,,,,,,,,,,,,,,,,,,,,,,,,,Incorrect,,,,1238.0,,,,,,,,,,,,1B,,,,,,,,yes,,,2022-01-25T20:13:34.000Z,361851,group_11,402318,Prediction2/Cat.3,1,2022-01-25T19:13:28.000Z,,,,not measured,,True
9,Prediction 2,4,Prediction_2,29,46,,,,,First,4_1B_prediction_1.mp3,5,,,,,,,correct_left,,,,,,,,,,,,,,,,,,,,,,,,,,,,,,,,,,Correct,,,,2736.0,,,,,,,,,,,,1B,,,,,,,,yes,,,2022-01-25T20:13:34.000Z,361851,group_11,402318,Prediction2/Cat.3,1,2022-01-25T19:13:28.000Z,,,,not measured,,True
9,Prediction 2,4,Prediction_2,30,29,,,,,First,4_2B_prediction_4.mp3,3,,,,,,,correct_left,,,,,,,,,,,,,,,,,,,,,,,,,,,,,,,,,,Correct,,,,835.0,,,,,,,,,,,,2B,,,,,,,,yes,,,2022-01-25T20:13:34.000Z,361851,group_11,402318,Prediction2/Cat.3,1,2022-01-25T19:13:28.000Z,,,,not measured,,True
9,Prediction 2,3,Ready?,1,1,,,,,,,1,,,,,,,,,,,,,,,,,,,,,,,,,,,,,,,,,,,,,,,,,,,,,,,,,,,,,,,,,,,,,,,,,yes,,,2022-01-25T20:13:34.000Z,361851,group_11,402318,Prediction2/Cat.3,1,2022-01-25T19:13:28.000Z,,,,not measured,,True
9,Prediction 2,2,Practice_Prediction,1,4,,,,,Second,,2,,,,,,,,,,incorrect_correct,,,,,,,,,,,,,,,,,,,,,,,,,,,,,,,Correct,,,,1769.0,,,,,,,,,,,,,,,,,,,,yes,,,2022-01-25T20:13:34.000Z,361851,group_11,402318,Prediction2/Cat.3,1,2022-01-25T19:13:28.000Z,,,,not measured,,True
9,Prediction 2,2,Practice_Prediction,2,6,,,,,Second,,2,,,,,,,,,,incorrect_correct,,,,,,,,,,,,,,,,,,,,,,,,,,,,,,,Correct,,,,1052.0,,,,,,,,,,,,,,,,,,,,yes,,,2022-01-25T20:13:34.000Z,361851,group_11,402318,Prediction2/Cat.3,1,2022-01-25T19:13:28.000Z,,,,not measured,,True
9,Prediction 2,2,Practice_Prediction,3,5,,,,,First,,2,,,,,,,,,,incorrect_correct,,,,,,,,,,,,,,,,,,,,,,,,,,,,,,,Incorrect,,,,1420.0,,,,,,,,,,,,,,,,,,,,yes,,,2022-01-25T20:13:34.000Z,361851,group_11,402318,Prediction2/Cat.3,1,2022-01-25T19:13:28.000Z,,,,not measured,,True
9,Prediction 2,1,Instructions_Prediction,1,1,,,,,,,1,,,,,,,,,,,,,,,,,,,,,,,,,,,,,,,,,,,,,,,,,,,,,,,,,,,,,,,,,,,,,,,,,yes,,,2022-01-25T20:13:34.000Z,361851,group_11,402318,Prediction2/Cat.3,1,2022-01-25T19:13:28.000Z,,,,not measured,,True
7,AP_Screen,3,imported_AP_eval,1,1,,,,,,,1,,,,,,,,,,,,,,,,,,,,,,,,,,,,,,,0.0,,,,,,,,,,,,,,,,,,,,,,,,,,,,,,,,,,yes,,,2022-01-25T20:13:34.000Z,361851,group_11,402318,Prediction2/Cat.3,1,2022-01-25T19:13:28.000Z,,,,not measured,,True
7,AP_Screen,2,imported_AP_headphone test,1,2,,,,,,,2,,,,,,,,,,,,two,,,,,,,,,,,,,,,1.0,,,,0.0,,,,,,,,,,,,,,,,,,,,,,,,,,,,,,,,I_S_O,,yes,,,2022-01-25T20:13:34.000Z,361851,group_11,402318,Prediction2/Cat.3,1,2022-01-25T19:13:28.000Z,,,,not measured,,True
7,AP_Screen,2,imported_AP_headphone test,2,3,,,,,,,3,,,,,,,,,,,,one,,,,,,,,,,,,,,,1.0,,,,0.0,,,,,,,,,,,,,,,,,,,,,,,,,,,,,,,,S_O_I,,yes,,,2022-01-25T20:13:34.000Z,361851,group_11,402318,Prediction2/Cat.3,1,2022-01-25T19:13:28.000Z,,,,not measured,,True
7,AP_Screen,2,imported_AP_headphone test,3,1,,,,,,,1,,,,,,,,,,,,three,,,,,,,,,,,,,,,1.0,,,,0.0,,,,,,,,,,,,,,,,,,,,,,,,,,,,,,,,I_O_S,,yes,,,2022-01-25T20:13:34.000Z,361851,group_11,402318,Prediction2/Cat.3,1,2022-01-25T19:13:28.000Z,,,,not measured,,True
7,AP_Screen,2,imported_AP_headphone test,4,4,,,,,,,4,,,,,,,,,,,,one,,,,,,,,,,,,,,,1.0,,,,0.0,,,,,,,,,,,,,,,,,,,,,,,,,,,,,,,,S_I_O,,yes,,,2022-01-25T20:13:34.000Z,361851,group_11,402318,Prediction2/Cat.3,1,2022-01-25T19:13:28.000Z,,,,not measured,,True
7,AP_Screen,2,imported_AP_headphone test,5,5,,,,,,,5,,,,,,,,,,,,two,,,,,,,,,,,,,,,1.0,,,,0.0,,,,,,,,,,,,,,,,,,,,,,,,,,,,,,,,O_S_I,,yes,,,2022-01-25T20:13:34.000Z,361851,group_11,402318,Prediction2/Cat.3,1,2022-01-25T19:13:28.000Z,,,,not measured,,True
7,AP_Screen,2,imported_AP_headphone test,6,6,,,,,,,6,,,,,,,,,,,,three,,,,,,,,,,,,,,,1.0,,,,0.0,,,,,,,,,,,,,,,,,,,,,,,,,,,,,,,,O_I_S,,yes,,,2022-01-25T20:13:34.000Z,361851,group_11,402318,Prediction2/Cat.3,1,2022-01-25T19:13:28.000Z,,,,not measured,,True
7,AP_Screen,1,imported_AP_instruction,1,1,,,,,,,1,,,,,,,,,,,,,,,,,,,,,,,,,,,,,,,,,,,,,,,,,,,,,,,,,,,,,,,,,,,,,,,,,yes,,,2022-01-25T20:13:34.000Z,361851,group_11,402318,Prediction2/Cat.3,1,2022-01-25T19:13:28.000Z,,,,not measured,,True
6,HP_Screen,3,imported_HP Evaluation,1,1,,,,,,,1,,,,,,,,,,,,,,0.0,,,,,,,,,,,,,,,,,,,,,,,,,,,,,,,,,,,,,,,,,,,,,,,,,,,yes,,,2022-01-25T20:13:34.000Z,361851,group_11,402318,Prediction2/Cat.3,1,2022-01-25T19:13:28.000Z,,,,not measured,,True
6,HP_Screen,2,imported_HP Trials,1,3,,,,,,,1,,,,,,,,,,,,,,0.0,,,"""times=;;;;;;;;;;;;;;;;;---values=;;;;;;;;;;;;;;;;;""",hp4.2.flac,,,,,,,,,,,,,,,,,,,,,,,choice 2,,,,,,,,,,,,,,,,,,,hp4.2.flac,,,,,yes,,,2022-01-25T20:13:34.000Z,361851,group_11,402318,Prediction2/Cat.3,1,2022-01-25T19:13:28.000Z,,,,not measured,,True
6,HP_Screen,2,imported_HP Trials,2,5,,,,,,,1,,,,,,,,,,,,,,0.0,,,"""times=;;;;;;;;;;;;;;;;;---values=;;;;;;;;;;;;;;;;;""",hp6.3.flac,,,,,,,,,,,,,,,,,,,,,,,choice 3,,,,,,,,,,,,,,,,,,,hp6.3.flac,,,,,yes,,,2022-01-25T20:13:34.000Z,361851,group_11,402318,Prediction2/Cat.3,1,2022-01-25T19:13:28.000Z,,,,not measured,,True
6,HP_Screen,2,imported_HP Trials,3,4,,,,,,,1,,,,,,,,,,,,,,0.0,,,"""times=;;;;;;;;;;;;;;;;;---values=;;;;;;;;;;;;;;;;;""",hp2.2.flac,,,,,,,,,,,,,,,,,,,,,,,choice 2,,,,,,,,,,,,,,,,,,,hp2.2.flac,,,,,yes,,,2022-01-25T20:13:34.000Z,361851,group_11,402318,Prediction2/Cat.3,1,2022-01-25T19:13:28.000Z,,,,not measured,,True
6,HP_Screen,2,imported_HP Trials,4,2,,,,,,,1,,,,,,,,,,,,,,0.0,,,"""times=;;;;;;;;;;;;;;;;;---values=;;;;;;;;;;;;;;;;;""",hp4.3.flac,,,,,,,,,,,,,,,,,,,,,,,choice 3,,,,,,,,,,,,,,,,,,,hp4.3.flac,,,,,yes,,,2022-01-25T20:13:34.000Z,361851,group_11,402318,Prediction2/Cat.3,1,2022-01-25T19:13:28.000Z,,,,not measured,,True
6,HP_Screen,2,imported_HP Trials,5,6,,,,,,,1,,,,,,,,,,,,,,0.0,,,"""times=;;;;;;;;;;;;;;;;;---values=;;;;;;;;;;;;;;;;;""",hp6.1.flac,,,,,,,,,,,,,,,,,,,,,,,choice 1,,,,,,,,,,,,,,,,,,,hp6.1.flac,,,,,yes,,,2022-01-25T20:13:34.000Z,361851,group_11,402318,Prediction2/Cat.3,1,2022-01-25T19:13:28.000Z,,,,not measured,,True
6,HP_Screen,2,imported_HP Trials,6,1,,,,,,,1,,,,,,,,,,,,,,0.0,,,"""times=;;;;;;;;;;;;;;;;;---values=;;;;;;;;;;;;;;;;;""",hp4.1.flac,,,,,,,,,,,,,,,,,,,,,,,choice 1,,,,,,,,,,,,,,,,,,,hp4.1.flac,,,,,yes,,,2022-01-25T20:13:34.000Z,361851,group_11,402318,Prediction2/Cat.3,1,2022-01-25T19:13:28.000Z,,,,not measured,,True
6,HP_Screen,1,imported_HP Instructions,1,1,,,,,,,1,,,,,,,,,,,,,,,1.0,,,,,,,,,,,,,,,,,,,,,,,,,,,,,,,,,,,,,,,,,,,,,,,,,,yes,,,2022-01-25T20:13:34.000Z,361851,group_11,402318,Prediction2/Cat.3,1,2022-01-25T19:13:28.000Z,,,,not measured,,True
4,GenInstructPredCat,1,InstructionsPredCat,1,1,,,,,,,1,,,,,,,,,,,,,,,,,,,,,,,,,,,,,,,,,,,,,,,,,,,,,,,,,,,,,,,,,,,,,,,,,yes,,,2022-01-25T20:13:34.000Z,361851,group_11,402318,Prediction2/Cat.3,1,2022-01-25T19:13:28.000Z,,,,not measured,,True
2,Consent,1,Consent,1,1,,,,,,,1,,,,,,,,,,,,,,,,,,,,,,,,,,,,,,,,,,,,,,,,,,,,,,,,,,,,,,,,,,,,,,,,,yes,,,2022-01-25T20:13:34.000Z,361851,group_11,402318,Prediction2/Cat.3,1,2022-01-25T19:13:28.000Z,,,,not measured,,True
