Block_Nr,Block_Name,Task_Nr,Task_Name,Trial_Nr,Trial_Id,ab_pitch,age_range,answer,best_instru,choice,clip,Condition_Id,conditions,consent,correct_incorrect_m_2,correct_incorrect_m_3,correct_incorrect_mem_1,correct_incorrect_p_1,correct_incorrect_p_2,correct_incorrect_p_3,correct_incorrect_practice_m,correct_incorrect_practice_p,correctCount,decision,earworm,errorCount,exampleCount,familiarity,fileArray,filePick,Frequenc,genre,genre_3,genre_4,hour,imagery,imagery_2,Instr,isCorrect,listen_time,music_theory,name_instru,nrErrors,num_instru,participant_choice,participant_choice_2,participant_choice2,participant_spacePress,participant_spacePress2,played_notplayed,practice_catseg_scramble,relative_pitch,response,response_seg,response_seg2,response_Time2,responseTime,retestCount,scramble_cat_1,scramble_cat_3,scramble_cat_4,scramble_catseg_4,scramble_level,scramble_m_1,scramble_m_2,scramble_m_3,scramble_open_3,scramble_p_1,scramble_p_2,scramble_p_3,set1response,soundName,strategy,time_atClipStart1,toneSequence,always_fullscreen,completed,crowdsourcing_code,crowdsourcing_subj_id,end_time,exp_subject_id,group_name,rec_session_id,session_name,session_nr,start_time,subj_counter_global,subj_counter_per_group,subject_code,time_delay_offset,time_measure_std,unlocked
13,Post-Survey,1,Post-Survey,1,1,,,,,,,1,,,,,,,,,,,,,,,,2.0,,,,,,,,,,,,,,,,,,,,,,option_1,,,,,,,,,,,,,,,,,,,,,,,"I had sometimes problems, but I tried to count seconds in me head (with closed eyes on 2th time) in most of times between greater pitch changes. Also I tried to remember last few seconds  of melody to compare with next ""rhytms"". Few times I am not sure whether I clicked because I hold mouse button but didn't release the key and maybe time passed. In these times always my second answer was the same like second.",,,,yes,,,2022-01-25T20:44:21.000Z,361879,group_5,402348,Memory2/Cat.3,1,2022-01-25T19:59:37.000Z,,,,not measured,,True
11,CategorizationSeg_3,4,CategorizationSeg_3,1,16,,,,,,,4,,,,,,,,,,,,,,,,,,,,,,,,,,,,,,,,,,,,,,,,,,,,,,,,1B,,,,,,,,,,,,,,,,,yes,,,2022-01-25T20:44:21.000Z,361879,group_5,402348,Memory2/Cat.3,1,2022-01-25T19:59:37.000Z,,,,not measured,,True
11,CategorizationSeg_3,4,CategorizationSeg_3,2,7,,,,,,,2,,,,,,,,,,,,,,,,,,,,,,,,,,,,,,,,,Every 16 seconds (every 8 measures),Every 16 seconds (every 8 measures),,,,,,,,Correct,Correct,2008.0,3157.0,,,8B,,,,,,,,,,,,,,,,,yes,,,2022-01-25T20:44:21.000Z,361879,group_5,402348,Memory2/Cat.3,1,2022-01-25T19:59:37.000Z,,,,not measured,,True
11,CategorizationSeg_3,4,CategorizationSeg_3,3,11,,,,,,,3,,,,,,,,,,,,,,,,,,,,,,,,,,,,,,,,,Every 4 seconds (every 2 measures),,,,,,,,,Correct,,,1812.0,,,2B,,,,,,,,,,,,,,,,,yes,,,2022-01-25T20:44:21.000Z,361879,group_5,402348,Memory2/Cat.3,1,2022-01-25T19:59:37.000Z,,,,not measured,,True
11,CategorizationSeg_3,4,CategorizationSeg_3,4,3,,,,,,,1,,,,,,,,,,,,,,,,,,,,,,,,,,,,,,,,,Every 16 seconds (every 8 measures),Every 16 seconds (every 8 measures),,,,,,,,Incorrect,Incorrect,1590.0,2545.0,,,intact,,,,,,,,,,,,,,,,,yes,,,2022-01-25T20:44:21.000Z,361879,group_5,402348,Memory2/Cat.3,1,2022-01-25T19:59:37.000Z,,,,not measured,,True
11,CategorizationSeg_3,4,CategorizationSeg_3,5,12,,,,,,,3,,,,,,,,,,,,,,,,,,,,,,,,,,,,,,,,,,Every 16 seconds (every 8 measures),,,,,,,,,Incorrect,2188.0,,,,2B,,,,,,,,,,,,,,,,,yes,,,2022-01-25T20:44:21.000Z,361879,group_5,402348,Memory2/Cat.3,1,2022-01-25T19:59:37.000Z,,,,not measured,,True
11,CategorizationSeg_3,4,CategorizationSeg_3,6,2,,,,,,,1,,,,,,,,,,,,,,,,,,,,,,,,,,,,,,,,,Every 4 seconds (every 2 measures),Every 2 seconds (every 1 measure),,,,,,,,Incorrect,Incorrect,2809.0,1355.0,,,intact,,,,,,,,,,,,,,,,,yes,,,2022-01-25T20:44:21.000Z,361879,group_5,402348,Memory2/Cat.3,1,2022-01-25T19:59:37.000Z,,,,not measured,,True
11,CategorizationSeg_3,4,CategorizationSeg_3,7,15,,,,,,,4,,,,,,,,,,,,,,,,,,,,,,,,,,,,,,,,,Every 4 seconds (every 2 measures),Every 4 seconds (every 2 measures),,,,,,,,Incorrect,Incorrect,3891.0,1567.0,,,1B,,,,,,,,,,,,,,,,,yes,,,2022-01-25T20:44:21.000Z,361879,group_5,402348,Memory2/Cat.3,1,2022-01-25T19:59:37.000Z,,,,not measured,,True
11,CategorizationSeg_3,4,CategorizationSeg_3,8,8,,,,,,,2,,,,,,,,,,,,,,,,,,,,,,,,,,,,,,,,,Every 4 seconds (every 2 measures),,,,,,,,,Incorrect,,,3629.0,,,8B,,,,,,,,,,,,,,,,,yes,,,2022-01-25T20:44:21.000Z,361879,group_5,402348,Memory2/Cat.3,1,2022-01-25T19:59:37.000Z,,,,not measured,,True
11,CategorizationSeg_3,3,Ready?,1,1,,,,,,,1,,,,,,,,,,,,,,,,,,,,,,,,,,,,,,,,,,,,,,,,,,,,,,,,,,,,,,,,,,,,,,,,,yes,,,2022-01-25T20:44:21.000Z,361879,group_5,402348,Memory2/Cat.3,1,2022-01-25T19:59:37.000Z,,,,not measured,,True
11,CategorizationSeg_3,2,Practice_Categorization,1,2,,,,,,,2,,,,,,,,,,,,,,,,,,,,,,,,,,,,,,,,,Every 4 seconds (every 2 measures),Every 16 seconds (every 8 measures),,,,,8B,,,Incorrect,Incorrect,11726.0,40035.0,,,,,,,,,,,,,,,,,,,,yes,,,2022-01-25T20:44:21.000Z,361879,group_5,402348,Memory2/Cat.3,1,2022-01-25T19:59:37.000Z,,,,not measured,,True
11,CategorizationSeg_3,1,Instructions for Categorization Seg.,1,1,,,,,,,1,,,,,,,,,,,,,,,,,,,,,,,,,,,,,,,,,,,,,,,,,,,,,,,,,,,,,,,,,,,,,,,,,yes,,,2022-01-25T20:44:21.000Z,361879,group_5,402348,Memory2/Cat.3,1,2022-01-25T19:59:37.000Z,,,,not measured,,True
9,Memory 2,4,Memory_2,1,28,,,,,First,4_2B_memory_3.mp3,3,,,correct_left,,,,,,,,,,,,,,,,,,,,,,,,,,,,,,,,,,,,,,Correct,,,,1627.0,,,,,,,,2B,,,,,,,,,,,,yes,,,2022-01-25T20:44:21.000Z,361879,group_5,402348,Memory2/Cat.3,1,2022-01-25T19:59:37.000Z,,,,not measured,,True
9,Memory 2,4,Memory_2,2,36,,,,,,4_2B_memory_1.mp3,4,,,incorrect_left,,,,,,,,,,,,,,,,,,,,,,,,,,,,,,,,,,,,,,,,,,,,,,,,,,2B,,,,,,,,,,,,yes,,,2022-01-25T20:44:21.000Z,361879,group_5,402348,Memory2/Cat.3,1,2022-01-25T19:59:37.000Z,,,,not measured,,True
9,Memory 2,4,Memory_2,3,49,,,,,Second,4_1B_memory_4.mp3,5,,,correct_left,,,,,,,,,,,,,,,,,,,,,,,,,,,,,,,,,,,,,,Incorrect,,,,1207.0,,,,,,,,1B,,,,,,,,,,,,yes,,,2022-01-25T20:44:21.000Z,361879,group_5,402348,Memory2/Cat.3,1,2022-01-25T19:59:37.000Z,,,,not measured,,True
9,Memory 2,4,Memory_2,4,11,,,,,Second,2_8B_memory_4.mp3,2,,,incorrect_left,,,,,,,,,,,,,,,,,,,,,,,,,,,,,,,,,,,,,,Correct,,,,904.0,,,,,,,,8B,,,,,,,,,,,,yes,,,2022-01-25T20:44:21.000Z,361879,group_5,402348,Memory2/Cat.3,1,2022-01-25T19:59:37.000Z,,,,not measured,,True
9,Memory 2,4,Memory_2,5,44,,,,,First,2_1B_memory_7.mp3,5,,,correct_left,,,,,,,,,,,,,,,,,,,,,,,,,,,,,,,,,,,,,,Correct,,,,894.0,,,,,,,,1B,,,,,,,,,,,,yes,,,2022-01-25T20:44:21.000Z,361879,group_5,402348,Memory2/Cat.3,1,2022-01-25T19:59:37.000Z,,,,not measured,,True
9,Memory 2,4,Memory_2,6,58,,,,,Second,4_1B_memory_3.mp3,6,,,incorrect_left,,,,,,,,,,,,,,,,,,,,,,,,,,,,,,,,,,,,,,Correct,,,,1818.0,,,,,,,,1B,,,,,,,,,,,,yes,,,2022-01-25T20:44:21.000Z,361879,group_5,402348,Memory2/Cat.3,1,2022-01-25T19:59:37.000Z,,,,not measured,,True
9,Memory 2,4,Memory_2,7,27,,,,,First,4_2B_memory_2.mp3,3,,,correct_left,,,,,,,,,,,,,,,,,,,,,,,,,,,,,,,,,,,,,,Correct,,,,3983.0,,,,,,,,2B,,,,,,,,,,,,yes,,,2022-01-25T20:44:21.000Z,361879,group_5,402348,Memory2/Cat.3,1,2022-01-25T19:59:37.000Z,,,,not measured,,True
9,Memory 2,4,Memory_2,8,32,,,,,First,2_2B_memory_5.mp3,4,,,incorrect_left,,,,,,,,,,,,,,,,,,,,,,,,,,,,,,,,,,,,,,Incorrect,,,,905.0,,,,,,,,2B,,,,,,,,,,,,yes,,,2022-01-25T20:44:21.000Z,361879,group_5,402348,Memory2/Cat.3,1,2022-01-25T19:59:37.000Z,,,,not measured,,True
9,Memory 2,4,Memory_2,9,16,,,,,Second,4_8B_memory_1.mp3,2,,,incorrect_left,,,,,,,,,,,,,,,,,,,,,,,,,,,,,,,,,,,,,,Correct,,,,765.0,,,,,,,,8B,,,,,,,,,,,,yes,,,2022-01-25T20:44:21.000Z,361879,group_5,402348,Memory2/Cat.3,1,2022-01-25T19:59:37.000Z,,,,not measured,,True
9,Memory 2,4,Memory_2,10,57,,,,,First,4_1B_memory_2.mp3,6,,,incorrect_left,,,,,,,,,,,,,,,,,,,,,,,,,,,,,,,,,,,,,,Incorrect,,,,1034.0,,,,,,,,1B,,,,,,,,,,,,yes,,,2022-01-25T20:44:21.000Z,361879,group_5,402348,Memory2/Cat.3,1,2022-01-25T19:59:37.000Z,,,,not measured,,True
9,Memory 2,4,Memory_2,11,12,,,,,Second,2_8B_memory_5.mp3,2,,,incorrect_left,,,,,,,,,,,,,,,,,,,,,,,,,,,,,,,,,,,,,,Correct,,,,1374.0,,,,,,,,8B,,,,,,,,,,,,yes,,,2022-01-25T20:44:21.000Z,361879,group_5,402348,Memory2/Cat.3,1,2022-01-25T19:59:37.000Z,,,,not measured,,True
9,Memory 2,4,Memory_2,12,34,,,,,Second,2_2B_memory_7.mp3,4,,,incorrect_left,,,,,,,,,,,,,,,,,,,,,,,,,,,,,,,,,,,,,,Correct,,,,979.0,,,,,,,,2B,,,,,,,,,,,,yes,,,2022-01-25T20:44:21.000Z,361879,group_5,402348,Memory2/Cat.3,1,2022-01-25T19:59:37.000Z,,,,not measured,,True
9,Memory 2,4,Memory_2,13,41,,,,,First,2_1B_memory_4.mp3,5,,,correct_left,,,,,,,,,,,,,,,,,,,,,,,,,,,,,,,,,,,,,,Correct,,,,1063.0,,,,,,,,1B,,,,,,,,,,,,yes,,,2022-01-25T20:44:21.000Z,361879,group_5,402348,Memory2/Cat.3,1,2022-01-25T19:59:37.000Z,,,,not measured,,True
9,Memory 2,4,Memory_2,14,46,,,,,Second,4_1B_memory_1.mp3,5,,,correct_left,,,,,,,,,,,,,,,,,,,,,,,,,,,,,,,,,,,,,,Incorrect,,,,1508.0,,,,,,,,1B,,,,,,,,,,,,yes,,,2022-01-25T20:44:21.000Z,361879,group_5,402348,Memory2/Cat.3,1,2022-01-25T19:59:37.000Z,,,,not measured,,True
9,Memory 2,4,Memory_2,15,10,,,,,First,4_8B_memory_5.mp3,1,,,correct_left,,,,,,,,,,,,,,,,,,,,,,,,,,,,,,,,,,,,,,Correct,,,,1635.0,,,,,,,,8B,,,,,,,,,,,,yes,,,2022-01-25T20:44:21.000Z,361879,group_5,402348,Memory2/Cat.3,1,2022-01-25T19:59:37.000Z,,,,not measured,,True
9,Memory 2,4,Memory_2,16,8,,,,,First,4_8B_memory_3.mp3,1,,,correct_left,,,,,,,,,,,,,,,,,,,,,,,,,,,,,,,,,,,,,,Correct,,,,876.0,,,,,,,,8B,,,,,,,,,,,,yes,,,2022-01-25T20:44:21.000Z,361879,group_5,402348,Memory2/Cat.3,1,2022-01-25T19:59:37.000Z,,,,not measured,,True
9,Memory 2,4,Memory_2,17,33,,,,,Second,2_2B_memory_6.mp3,4,,,incorrect_left,,,,,,,,,,,,,,,,,,,,,,,,,,,,,,,,,,,,,,Correct,,,,756.0,,,,,,,,2B,,,,,,,,,,,,yes,,,2022-01-25T20:44:21.000Z,361879,group_5,402348,Memory2/Cat.3,1,2022-01-25T19:59:37.000Z,,,,not measured,,True
9,Memory 2,4,Memory_2,18,43,,,,,,2_1B_memory_6.mp3,5,,,correct_left,,,,,,,,,,,,,,,,,,,,,,,,,,,,,,,,,,,,,,,,,,,,,,,,,,1B,,,,,,,,,,,,yes,,,2022-01-25T20:44:21.000Z,361879,group_5,402348,Memory2/Cat.3,1,2022-01-25T19:59:37.000Z,,,,not measured,,True
9,Memory 2,4,Memory_2,19,35,,,,,First,2_2B_memory_8.mp3,4,,,incorrect_left,,,,,,,,,,,,,,,,,,,,,,,,,,,,,,,,,,,,,,Incorrect,,,,973.0,,,,,,,,2B,,,,,,,,,,,,yes,,,2022-01-25T20:44:21.000Z,361879,group_5,402348,Memory2/Cat.3,1,2022-01-25T19:59:37.000Z,,,,not measured,,True
9,Memory 2,4,Memory_2,20,39,,,,,First,4_2B_memory_4.mp3,4,,,incorrect_left,,,,,,,,,,,,,,,,,,,,,,,,,,,,,,,,,,,,,,Incorrect,,,,1495.0,,,,,,,,2B,,,,,,,,,,,,yes,,,2022-01-25T20:44:21.000Z,361879,group_5,402348,Memory2/Cat.3,1,2022-01-25T19:59:37.000Z,,,,not measured,,True
9,Memory 2,4,Memory_2,21,40,,,,,First,4_2B_memory_5.mp3,4,,,incorrect_left,,,,,,,,,,,,,,,,,,,,,,,,,,,,,,,,,,,,,,Incorrect,,,,778.0,,,,,,,,2B,,,,,,,,,,,,yes,,,2022-01-25T20:44:21.000Z,361879,group_5,402348,Memory2/Cat.3,1,2022-01-25T19:59:37.000Z,,,,not measured,,True
9,Memory 2,4,Memory_2,22,13,,,,,Second,2_8B_memory_6.mp3,2,,,incorrect_left,,,,,,,,,,,,,,,,,,,,,,,,,,,,,,,,,,,,,,Correct,,,,782.0,,,,,,,,8B,,,,,,,,,,,,yes,,,2022-01-25T20:44:21.000Z,361879,group_5,402348,Memory2/Cat.3,1,2022-01-25T19:59:37.000Z,,,,not measured,,True
9,Memory 2,4,Memory_2,23,60,,,,,First,4_1B_memory_5.mp3,6,,,incorrect_left,,,,,,,,,,,,,,,,,,,,,,,,,,,,,,,,,,,,,,Incorrect,,,,479.0,,,,,,,,1B,,,,,,,,,,,,yes,,,2022-01-25T20:44:21.000Z,361879,group_5,402348,Memory2/Cat.3,1,2022-01-25T19:59:37.000Z,,,,not measured,,True
9,Memory 2,4,Memory_2,24,4,,,,,First,2_8B_memory_7.mp3,1,,,correct_left,,,,,,,,,,,,,,,,,,,,,,,,,,,,,,,,,,,,,,Correct,,,,557.0,,,,,,,,8B,,,,,,,,,,,,yes,,,2022-01-25T20:44:21.000Z,361879,group_5,402348,Memory2/Cat.3,1,2022-01-25T19:59:37.000Z,,,,not measured,,True
9,Memory 2,4,Memory_2,25,42,,,,,First,2_1B_memory_5.mp3,5,,,correct_left,,,,,,,,,,,,,,,,,,,,,,,,,,,,,,,,,,,,,,Correct,,,,1165.0,,,,,,,,1B,,,,,,,,,,,,yes,,,2022-01-25T20:44:21.000Z,361879,group_5,402348,Memory2/Cat.3,1,2022-01-25T19:59:37.000Z,,,,not measured,,True
9,Memory 2,4,Memory_2,26,45,,,,,Second,2_1B_memory_8.mp3,5,,,correct_left,,,,,,,,,,,,,,,,,,,,,,,,,,,,,,,,,,,,,,Incorrect,,,,1282.0,,,,,,,,1B,,,,,,,,,,,,yes,,,2022-01-25T20:44:21.000Z,361879,group_5,402348,Memory2/Cat.3,1,2022-01-25T19:59:37.000Z,,,,not measured,,True
9,Memory 2,4,Memory_2,27,31,,,,,Second,2_2B_memory_4.mp3,4,,,incorrect_left,,,,,,,,,,,,,,,,,,,,,,,,,,,,,,,,,,,,,,Correct,,,,574.0,,,,,,,,2B,,,,,,,,,,,,yes,,,2022-01-25T20:44:21.000Z,361879,group_5,402348,Memory2/Cat.3,1,2022-01-25T19:59:37.000Z,,,,not measured,,True
9,Memory 2,4,Memory_2,28,5,,,,,First,2_8B_memory_8.mp3,1,,,correct_left,,,,,,,,,,,,,,,,,,,,,,,,,,,,,,,,,,,,,,Correct,,,,994.0,,,,,,,,8B,,,,,,,,,,,,yes,,,2022-01-25T20:44:21.000Z,361879,group_5,402348,Memory2/Cat.3,1,2022-01-25T19:59:37.000Z,,,,not measured,,True
9,Memory 2,4,Memory_2,29,7,,,,,Second,4_8B_memory_2.mp3,1,,,correct_left,,,,,,,,,,,,,,,,,,,,,,,,,,,,,,,,,,,,,,Incorrect,,,,2985.0,,,,,,,,8B,,,,,,,,,,,,yes,,,2022-01-25T20:44:21.000Z,361879,group_5,402348,Memory2/Cat.3,1,2022-01-25T19:59:37.000Z,,,,not measured,,True
9,Memory 2,4,Memory_2,30,9,,,,,Second,4_8B_memory_4.mp3,1,,,correct_left,,,,,,,,,,,,,,,,,,,,,,,,,,,,,,,,,,,,,,Incorrect,,,,1973.0,,,,,,,,8B,,,,,,,,,,,,yes,,,2022-01-25T20:44:21.000Z,361879,group_5,402348,Memory2/Cat.3,1,2022-01-25T19:59:37.000Z,,,,not measured,,True
9,Memory 2,3,Ready?,1,1,,,,,,,1,,,,,,,,,,,,,,,,,,,,,,,,,,,,,,,,,,,,,,,,,,,,,,,,,,,,,,,,,,,,,,,,,yes,,,2022-01-25T20:44:21.000Z,361879,group_5,402348,Memory2/Cat.3,1,2022-01-25T19:59:37.000Z,,,,not measured,,True
9,Memory 2,2,Practice_Memory,1,4,,,,,Second,,2,,,,,,,,,incorrect_correc,,,,,,,,,,,,,,,,,,,,,,,,,,,,,,,,Correct,,,,3872.0,,,,,,,,,,,,,,,,,,,,yes,,,2022-01-25T20:44:21.000Z,361879,group_5,402348,Memory2/Cat.3,1,2022-01-25T19:59:37.000Z,,,,not measured,,True
9,Memory 2,2,Practice_Memory,2,5,,,,,Second,,2,,,,,,,,,incorrect_correc,,,,,,,,,,,,,,,,,,,,,,,,,,,,,,,,Correct,,,,3732.0,,,,,,,,,,,,,,,,,,,,yes,,,2022-01-25T20:44:21.000Z,361879,group_5,402348,Memory2/Cat.3,1,2022-01-25T19:59:37.000Z,,,,not measured,,True
9,Memory 2,2,Practice_Memory,3,6,,,,,Second,,2,,,,,,,,,incorrect_correc,,,,,,,,,,,,,,,,,,,,,,,,,,,,,,,,Correct,,,,2390.0,,,,,,,,,,,,,,,,,,,,yes,,,2022-01-25T20:44:21.000Z,361879,group_5,402348,Memory2/Cat.3,1,2022-01-25T19:59:37.000Z,,,,not measured,,True
9,Memory 2,1,Instructions_Memory,1,1,,,,,,,1,,,,,,,,,,,,,,,,,,,,,,,,,,,,,,,,,,,,,,,,,,,,,,,,,,,,,,,,,,,,,,,,,yes,,,2022-01-25T20:44:21.000Z,361879,group_5,402348,Memory2/Cat.3,1,2022-01-25T19:59:37.000Z,,,,not measured,,True
7,HP_Screen,3,imported_HP Evaluation,1,1,,,,,,,1,,,,,,,,,,,,,,0.0,,,,,,,,,,,,,,,,,,,,,,,,,,,,,,,,,,,,,,,,,,,,,,,,,,,yes,,,2022-01-25T20:44:21.000Z,361879,group_5,402348,Memory2/Cat.3,1,2022-01-25T19:59:37.000Z,,,,not measured,,True
7,HP_Screen,2,imported_HP Trials,1,5,,,,,,,1,,,,,,,,,,,,,,0.0,,,"""times=;;;;;;;;;;;;;;;;;---values=;;;;;;;;;;;;;;;;;""",hp4.2.flac,,,,,,,,,,,,,,,,,,,,,,,choice 2,,,,,,,,,,,,,,,,,,,hp4.2.flac,,,,,yes,,,2022-01-25T20:44:21.000Z,361879,group_5,402348,Memory2/Cat.3,1,2022-01-25T19:59:37.000Z,,,,not measured,,True
7,HP_Screen,2,imported_HP Trials,2,4,,,,,,,1,,,,,,,,,,,,,,0.0,,,"""times=;;;;;;;;;;;;;;;;;---values=;;;;;;;;;;;;;;;;;""",hp6.3.flac,,,,,,,,,,,,,,,,,,,,,,,choice 3,,,,,,,,,,,,,,,,,,,hp6.3.flac,,,,,yes,,,2022-01-25T20:44:21.000Z,361879,group_5,402348,Memory2/Cat.3,1,2022-01-25T19:59:37.000Z,,,,not measured,,True
7,HP_Screen,2,imported_HP Trials,3,3,,,,,,,1,,,,,,,,,,,,,,0.0,,,"""times=;;;;;;;;;;;;;;;;;---values=;;;;;;;;;;;;;;;;;""",hp2.3.flac,,,,,,,,,,,,,,,,,,,,,,,choice 3,,,,,,,,,,,,,,,,,,,hp2.3.flac,,,,,yes,,,2022-01-25T20:44:21.000Z,361879,group_5,402348,Memory2/Cat.3,1,2022-01-25T19:59:37.000Z,,,,not measured,,True
7,HP_Screen,2,imported_HP Trials,4,6,,,,,,,1,,,,,,,,,,,,,,0.0,,,"""times=;;;;;;;;;;;;;;;;;---values=;;;;;;;;;;;;;;;;;""",hp4.1.flac,,,,,,,,,,,,,,,,,,,,,,,choice 1,,,,,,,,,,,,,,,,,,,hp4.1.flac,,,,,yes,,,2022-01-25T20:44:21.000Z,361879,group_5,402348,Memory2/Cat.3,1,2022-01-25T19:59:37.000Z,,,,not measured,,True
7,HP_Screen,2,imported_HP Trials,5,2,,,,,,,1,,,,,,,,,,,,,,0.0,,,"""times=;;;;;;;;;;;;;;;;;---values=;;;;;;;;;;;;;;;;;""",hp6.2.flac,,,,,,,,,,,,,,,,,,,,,,,choice 2,,,,,,,,,,,,,,,,,,,hp6.2.flac,,,,,yes,,,2022-01-25T20:44:21.000Z,361879,group_5,402348,Memory2/Cat.3,1,2022-01-25T19:59:37.000Z,,,,not measured,,True
7,HP_Screen,2,imported_HP Trials,6,1,,,,,,,1,,,,,,,,,,,,,,0.0,,,"""times=;;;;;;;;;;;;;;;;;---values=;;;;;;;;;;;;;;;;;""",hp1.2.flac,,,,,,,,,,,,,,,,,,,,,,,choice 2,,,,,,,,,,,,,,,,,,,hp1.2.flac,,,,,yes,,,2022-01-25T20:44:21.000Z,361879,group_5,402348,Memory2/Cat.3,1,2022-01-25T19:59:37.000Z,,,,not measured,,True
7,HP_Screen,1,imported_HP Instructions,1,1,,,,,,,1,,,,,,,,,,,,,,,1.0,,,,,,,,,,,,,,,,,,,,,,,,,,,,,,,,,,,,,,,,,,,,,,,,,,yes,,,2022-01-25T20:44:21.000Z,361879,group_5,402348,Memory2/Cat.3,1,2022-01-25T19:59:37.000Z,,,,not measured,,True
6,AP_Screen,3,imported_AP_eval,1,1,,,,,,,1,,,,,,,,,,,,,,,,,,,,,,,,,,,,,,,0.0,,,,,,,,,,,,,,,,,,,,,,,,,,,,,,,,,,yes,,,2022-01-25T20:44:21.000Z,361879,group_5,402348,Memory2/Cat.3,1,2022-01-25T19:59:37.000Z,,,,not measured,,True
6,AP_Screen,2,imported_AP_headphone test,1,4,,,,,,,4,,,,,,,,,,,,one,,,,,,,,,,,,,,,1.0,,,,0.0,,,,,,,,,,,,,,,,,,,,,,,,,,,,,,,,S_I_O,,yes,,,2022-01-25T20:44:21.000Z,361879,group_5,402348,Memory2/Cat.3,1,2022-01-25T19:59:37.000Z,,,,not measured,,True
6,AP_Screen,2,imported_AP_headphone test,2,2,,,,,,,2,,,,,,,,,,,,two,,,,,,,,,,,,,,,1.0,,,,0.0,,,,,,,,,,,,,,,,,,,,,,,,,,,,,,,,I_S_O,,yes,,,2022-01-25T20:44:21.000Z,361879,group_5,402348,Memory2/Cat.3,1,2022-01-25T19:59:37.000Z,,,,not measured,,True
6,AP_Screen,2,imported_AP_headphone test,3,1,,,,,,,1,,,,,,,,,,,,three,,,,,,,,,,,,,,,1.0,,,,0.0,,,,,,,,,,,,,,,,,,,,,,,,,,,,,,,,I_O_S,,yes,,,2022-01-25T20:44:21.000Z,361879,group_5,402348,Memory2/Cat.3,1,2022-01-25T19:59:37.000Z,,,,not measured,,True
6,AP_Screen,2,imported_AP_headphone test,4,5,,,,,,,5,,,,,,,,,,,,two,,,,,,,,,,,,,,,1.0,,,,0.0,,,,,,,,,,,,,,,,,,,,,,,,,,,,,,,,O_S_I,,yes,,,2022-01-25T20:44:21.000Z,361879,group_5,402348,Memory2/Cat.3,1,2022-01-25T19:59:37.000Z,,,,not measured,,True
6,AP_Screen,2,imported_AP_headphone test,5,6,,,,,,,6,,,,,,,,,,,,three,,,,,,,,,,,,,,,1.0,,,,0.0,,,,,,,,,,,,,,,,,,,,,,,,,,,,,,,,O_I_S,,yes,,,2022-01-25T20:44:21.000Z,361879,group_5,402348,Memory2/Cat.3,1,2022-01-25T19:59:37.000Z,,,,not measured,,True
6,AP_Screen,2,imported_AP_headphone test,6,3,,,,,,,3,,,,,,,,,,,,one,,,,,,,,,,,,,,,1.0,,,,0.0,,,,,,,,,,,,,,,,,,,,,,,,,,,,,,,,S_O_I,,yes,,,2022-01-25T20:44:21.000Z,361879,group_5,402348,Memory2/Cat.3,1,2022-01-25T19:59:37.000Z,,,,not measured,,True
6,AP_Screen,1,imported_AP_instruction,1,1,,,,,,,1,,,,,,,,,,,,,,,,,,,,,,,,,,,,,,,,,,,,,,,,,,,,,,,,,,,,,,,,,,,,,,,,,yes,,,2022-01-25T20:44:21.000Z,361879,group_5,402348,Memory2/Cat.3,1,2022-01-25T19:59:37.000Z,,,,not measured,,True
4,GenInstructMemCat,1,InstructionsMemCat,1,1,,,,,,,1,,,,,,,,,,,,,,,,,,,,,,,,,,,,,,,,,,,,,,,,,,,,,,,,,,,,,,,,,,,,,,,,,yes,,,2022-01-25T20:44:21.000Z,361879,group_5,402348,Memory2/Cat.3,1,2022-01-25T19:59:37.000Z,,,,not measured,,True
2,Consent,1,Consent,1,1,,,,,,,1,,,,,,,,,,,,,,,,,,,,,,,,,,,,,,,,,,,,,,,,,,,,,,,,,,,,,,,,,,,,,,,,,yes,,,2022-01-25T20:44:21.000Z,361879,group_5,402348,Memory2/Cat.3,1,2022-01-25T19:59:37.000Z,,,,not measured,,True
