Block_Nr,Block_Name,Task_Nr,Task_Name,Trial_Nr,Trial_Id,ab_pitch,age_range,answer,best_instru,choice,clip,Condition_Id,conditions,consent,correct_incorrect_m_2,correct_incorrect_m_3,correct_incorrect_mem_1,correct_incorrect_p_1,correct_incorrect_p_2,correct_incorrect_p_3,correct_incorrect_practice_m,correct_incorrect_practice_p,correctCount,decision,earworm,errorCount,exampleCount,familiarity,fileArray,filePick,Frequenc,genre,genre_3,genre_4,hour,imagery,imagery_2,Instr,isCorrect,listen_time,music_theory,name_instru,nrErrors,num_instru,participant_choice,participant_choice_2,participant_choice2,participant_spacePress,participant_spacePress2,played_notplayed,practice_catseg_scramble,relative_pitch,response,response_seg,response_seg2,response_Time2,responseTime,retestCount,scramble_cat_1,scramble_cat_3,scramble_cat_4,scramble_catseg_4,scramble_level,scramble_m_1,scramble_m_2,scramble_m_3,scramble_open_3,scramble_p_1,scramble_p_2,scramble_p_3,set1response,soundName,strategy,time_atClipStart1,toneSequence,always_fullscreen,completed,crowdsourcing_code,crowdsourcing_subj_id,end_time,exp_subject_id,group_name,rec_session_id,session_name,session_nr,start_time,subj_counter_global,subj_counter_per_group,subject_code,time_delay_offset,time_measure_std,unlocked
13,Post-Survey,1,Post-Survey,1,1,No,"guitar 15-26, bass 22-26",,guitar,,,1,,,,,,,,,,,,,4.0,,,2.0,,,4-5 Days/Week,indie rock,rap,corridos,2 hours,,5.0,10 or more years,,2 hours,2 years,"piano, guitar, bass",,2.0,,,,,,option_1,,Yes,,,,,,,,,,,,,,,,,,,,,analyze the rhythm and the tonality of the clip,,,,yes,,,2022-01-27T22:39:05.000Z,363270,group_9,404137,Prediction3/Open2,1,2022-01-27T21:50:41.000Z,,,,not measured,,True
11,OpenEndedSeg_2,4,OpenEndedSeg_2,1,13,,,,,,,4,,,,,,,,,,,,,,,,,,,,,,,,,,,,,,,,,,,,,,,,,,,,,,,,,,,1B,,,,,,,,,,,,,,yes,,,2022-01-27T22:39:05.000Z,363270,group_9,404137,Prediction3/Open2,1,2022-01-27T21:50:41.000Z,,,,not measured,,True
11,OpenEndedSeg_2,4,OpenEndedSeg_2,2,6,,,,,,,2,,,,,,,,,,,,,,,,,,,,,,,,,,,,,,,,,,,,,,,,,,,,,,,,,,,8B,,,,,,,,,,,,,,yes,,,2022-01-27T22:39:05.000Z,363270,group_9,404137,Prediction3/Open2,1,2022-01-27T21:50:41.000Z,,,,not measured,,True
11,OpenEndedSeg_2,4,OpenEndedSeg_2,3,10,,,,,,,3,,,,,,,,,,,,,,,,,,,,,,,,,,,,,,,,,,,,,,,,,,,,,,,,,,,2B,,,,,,,,,,,,,,yes,,,2022-01-27T22:39:05.000Z,363270,group_9,404137,Prediction3/Open2,1,2022-01-27T21:50:41.000Z,,,,not measured,,True
11,OpenEndedSeg_2,4,OpenEndedSeg_2,4,8,,,,,,,2,,,,,,,,,,,,,,,,,,,,,,,,,,,,,,,,,,,,,,,,,,,,,,,,,,,8B,,,,,,,,,,,,,,yes,,,2022-01-27T22:39:05.000Z,363270,group_9,404137,Prediction3/Open2,1,2022-01-27T21:50:41.000Z,,,,not measured,,True
11,OpenEndedSeg_2,4,OpenEndedSeg_2,5,11,,,,,,,3,,,,,,,,,,,,,,,,,,,,,,,,,,,,,,,,,,,,,,,,,,,,,,,,,,,2B,,,,,,,,,,,,,,yes,,,2022-01-27T22:39:05.000Z,363270,group_9,404137,Prediction3/Open2,1,2022-01-27T21:50:41.000Z,,,,not measured,,True
11,OpenEndedSeg_2,4,OpenEndedSeg_2,6,1,,,,,,,1,,,,,,,,,,,,,,,,,,,,,,,,,,,,,,,,,,,,,,,,,,,,,,,,,,,intact,,,,,,,,,,,,,,yes,,,2022-01-27T22:39:05.000Z,363270,group_9,404137,Prediction3/Open2,1,2022-01-27T21:50:41.000Z,,,,not measured,,True
11,OpenEndedSeg_2,4,OpenEndedSeg_2,7,4,,,,,,,1,,,,,,,,,,,,,,,,,,,,,,,,,,,,,,,,,,,,,,,,,,,,,,,,,,,intact,,,,,,,,,,,,,,yes,,,2022-01-27T22:39:05.000Z,363270,group_9,404137,Prediction3/Open2,1,2022-01-27T21:50:41.000Z,,,,not measured,,True
11,OpenEndedSeg_2,4,OpenEndedSeg_2,8,14,,,,,,,4,,,,,,,,,,,,,,,,,,,,,,,,,,,,,,,,,,,,,,,,,,,,,,,,,,,1B,,,,,,,,,,,,,,yes,,,2022-01-27T22:39:05.000Z,363270,group_9,404137,Prediction3/Open2,1,2022-01-27T21:50:41.000Z,,,,not measured,,True
11,OpenEndedSeg_2,3,Ready?,1,1,,,,,,,1,,,,,,,,,,,,,,,,,,,,,,,,,,,,,,,,,,,,,,,,,,,,,,,,,,,,,,,,,,,,,,,,,yes,,,2022-01-27T22:39:05.000Z,363270,group_9,404137,Prediction3/Open2,1,2022-01-27T21:50:41.000Z,,,,not measured,,True
11,OpenEndedSeg_2,2,Practice_OpenEnded,1,1,,,,,,,1,,,,,,,,,,,,,,,,,,,,,,,,,,,,,,,,,,,,,,,,,,,,,,,,,,,,,,,,,,,,,,,,,yes,,,2022-01-27T22:39:05.000Z,363270,group_9,404137,Prediction3/Open2,1,2022-01-27T21:50:41.000Z,,,,not measured,,True
11,OpenEndedSeg_2,1,Instructions_Open,1,1,,,,,,,1,,,,,,,,,,,,,,,,,,,,,,,,,,,,,,,,,,,,,,,,,,,,,,,,,,,,,,,,,,,,,,,,,yes,,,2022-01-27T22:39:05.000Z,363270,group_9,404137,Prediction3/Open2,1,2022-01-27T21:50:41.000Z,,,,not measured,,True
9,Prediction3,4,Prediction_3,1,23,,,,,Second,3_2B_prediction_8.mp3,3,,,,,,,,correct_left,,,,,,,,,,,,,,,,,,,,,,,,,,,,,,,,,Incorrect,,,,1706.0,,,,,,,,,,,,,2B,,,,,,,yes,,,2022-01-27T22:39:05.000Z,363270,group_9,404137,Prediction3/Open2,1,2022-01-27T21:50:41.000Z,,,,not measured,,True
9,Prediction3,4,Prediction_3,2,54,,,,,Second,3_1B_prediction_9.mp3,6,,,,,,,,incorrect_left,,,,,,,,,,,,,,,,,,,,,,,,,,,,,,,,,Correct,,,,706.0,,,,,,,,,,,,,1B,,,,,,,yes,,,2022-01-27T22:39:05.000Z,363270,group_9,404137,Prediction3/Open2,1,2022-01-27T21:50:41.000Z,,,,not measured,,True
9,Prediction3,4,Prediction_3,3,39,,,,,Second,4_2B_prediction_8.mp3,4,,,,,,,,incorrect_left,,,,,,,,,,,,,,,,,,,,,,,,,,,,,,,,,Correct,,,,660.0,,,,,,,,,,,,,2B,,,,,,,yes,,,2022-01-27T22:39:05.000Z,363270,group_9,404137,Prediction3/Open2,1,2022-01-27T21:50:41.000Z,,,,not measured,,True
9,Prediction3,4,Prediction_3,4,4,,,,,First,3_8B_prediction_9.mp3,1,,,,,,,,correct_left,,,,,,,,,,,,,,,,,,,,,,,,,,,,,,,,,Correct,,,,1480.0,,,,,,,,,,,,,8B,,,,,,,yes,,,2022-01-27T22:39:05.000Z,363270,group_9,404137,Prediction3/Open2,1,2022-01-27T21:50:41.000Z,,,,not measured,,True
9,Prediction3,4,Prediction_3,5,15,,,,,Second,3_8B_prediction_2.mp3,2,,,,,,,,incorrect_left,,,,,,,,,,,,,,,,,,,,,,,,,,,,,,,,,Correct,,,,1038.0,,,,,,,,,,,,,8B,,,,,,,yes,,,2022-01-27T22:39:05.000Z,363270,group_9,404137,Prediction3/Open2,1,2022-01-27T21:50:41.000Z,,,,not measured,,True
9,Prediction3,4,Prediction_3,6,20,,,,,Second,4_8B_prediction_9.mp3,2,,,,,,,,incorrect_left,,,,,,,,,,,,,,,,,,,,,,,,,,,,,,,,,Correct,,,,597.0,,,,,,,,,,,,,8B,,,,,,,yes,,,2022-01-27T22:39:05.000Z,363270,group_9,404137,Prediction3/Open2,1,2022-01-27T21:50:41.000Z,,,,not measured,,True
9,Prediction3,4,Prediction_3,7,43,,,,,Second,3_1B_prediction_8.mp3,5,,,,,,,,correct_left,,,,,,,,,,,,,,,,,,,,,,,,,,,,,,,,,Incorrect,,,,434.0,,,,,,,,,,,,,1B,,,,,,,yes,,,2022-01-27T22:39:05.000Z,363270,group_9,404137,Prediction3/Open2,1,2022-01-27T21:50:41.000Z,,,,not measured,,True
9,Prediction3,4,Prediction_3,8,30,,,,,First,4_2B_prediction_9.mp3,3,,,,,,,,correct_left,,,,,,,,,,,,,,,,,,,,,,,,,,,,,,,,,Correct,,,,807.0,,,,,,,,,,,,,2B,,,,,,,yes,,,2022-01-27T22:39:05.000Z,363270,group_9,404137,Prediction3/Open2,1,2022-01-27T21:50:41.000Z,,,,not measured,,True
9,Prediction3,4,Prediction_3,9,59,,,,,Second,4_1B_prediction_8.mp3,6,,,,,,,,incorrect_left,,,,,,,,,,,,,,,,,,,,,,,,,,,,,,,,,Correct,,,,514.0,,,,,,,,,,,,,1B,,,,,,,yes,,,2022-01-27T22:39:05.000Z,363270,group_9,404137,Prediction3/Open2,1,2022-01-27T21:50:41.000Z,,,,not measured,,True
9,Prediction3,4,Prediction_3,10,34,,,,,,3_2B_prediction_9.mp3,4,,,,,,,,incorrect_left,,,,,,,,,,,,,,,,,,,,,,,,,,,,,,,,,,,,,,,,,,,,,,,,,,2B,,,,,,,yes,,,2022-01-27T22:39:05.000Z,363270,group_9,404137,Prediction3/Open2,1,2022-01-27T21:50:41.000Z,,,,not measured,,True
9,Prediction3,4,Prediction_3,11,45,,,,,Second,3_1B_prediction_10.mp3,5,,,,,,,,correct_left,,,,,,,,,,,,,,,,,,,,,,,,,,,,,,,,,Incorrect,,,,684.0,,,,,,,,,,,,,1B,,,,,,,yes,,,2022-01-27T22:39:05.000Z,363270,group_9,404137,Prediction3/Open2,1,2022-01-27T21:50:41.000Z,,,,not measured,,True
9,Prediction3,4,Prediction_3,12,27,,,,,First,4_2B_prediction_6.mp3,3,,,,,,,,correct_left,,,,,,,,,,,,,,,,,,,,,,,,,,,,,,,,,Correct,,,,624.0,,,,,,,,,,,,,2B,,,,,,,yes,,,2022-01-27T22:39:05.000Z,363270,group_9,404137,Prediction3/Open2,1,2022-01-27T21:50:41.000Z,,,,not measured,,True
9,Prediction3,4,Prediction_3,13,46,,,,,First,4_1B_prediction_5.mp3,5,,,,,,,,correct_left,,,,,,,,,,,,,,,,,,,,,,,,,,,,,,,,,Correct,,,,1276.0,,,,,,,,,,,,,1B,,,,,,,yes,,,2022-01-27T22:39:05.000Z,363270,group_9,404137,Prediction3/Open2,1,2022-01-27T21:50:41.000Z,,,,not measured,,True
9,Prediction3,4,Prediction_3,14,47,,,,,Second,4_1B_prediction_6.mp3,5,,,,,,,,correct_left,,,,,,,,,,,,,,,,,,,,,,,,,,,,,,,,,Incorrect,,,,756.0,,,,,,,,,,,,,1B,,,,,,,yes,,,2022-01-27T22:39:05.000Z,363270,group_9,404137,Prediction3/Open2,1,2022-01-27T21:50:41.000Z,,,,not measured,,True
9,Prediction3,4,Prediction_3,15,51,,,,,Second,3_1B_prediction_6.mp3,6,,,,,,,,incorrect_left,,,,,,,,,,,,,,,,,,,,,,,,,,,,,,,,,Correct,,,,728.0,,,,,,,,,,,,,1B,,,,,,,yes,,,2022-01-27T22:39:05.000Z,363270,group_9,404137,Prediction3/Open2,1,2022-01-27T21:50:41.000Z,,,,not measured,,True
9,Prediction3,4,Prediction_3,16,7,,,,,First,4_8B_prediction_6.mp3,1,,,,,,,,correct_left,,,,,,,,,,,,,,,,,,,,,,,,,,,,,,,,,Correct,,,,868.0,,,,,,,,,,,,,8B,,,,,,,yes,,,2022-01-27T22:39:05.000Z,363270,group_9,404137,Prediction3/Open2,1,2022-01-27T21:50:41.000Z,,,,not measured,,True
9,Prediction3,4,Prediction_3,17,26,,,,,First,4_2B_prediction_5.mp3,3,,,,,,,,correct_left,,,,,,,,,,,,,,,,,,,,,,,,,,,,,,,,,Correct,,,,1444.0,,,,,,,,,,,,,2B,,,,,,,yes,,,2022-01-27T22:39:05.000Z,363270,group_9,404137,Prediction3/Open2,1,2022-01-27T21:50:41.000Z,,,,not measured,,True
9,Prediction3,4,Prediction_3,18,42,,,,,First,3_1B_prediction_7.mp3,5,,,,,,,,correct_left,,,,,,,,,,,,,,,,,,,,,,,,,,,,,,,,,Correct,,,,844.0,,,,,,,,,,,,,1B,,,,,,,yes,,,2022-01-27T22:39:05.000Z,363270,group_9,404137,Prediction3/Open2,1,2022-01-27T21:50:41.000Z,,,,not measured,,True
9,Prediction3,4,Prediction_3,19,19,,,,,Second,4_8B_prediction_8.mp3,2,,,,,,,,incorrect_left,,,,,,,,,,,,,,,,,,,,,,,,,,,,,,,,,Correct,,,,407.0,,,,,,,,,,,,,8B,,,,,,,yes,,,2022-01-27T22:39:05.000Z,363270,group_9,404137,Prediction3/Open2,1,2022-01-27T21:50:41.000Z,,,,not measured,,True
9,Prediction3,4,Prediction_3,20,18,,,,,Second,4_8B_prediction_7.mp3,2,,,,,,,,incorrect_left,,,,,,,,,,,,,,,,,,,,,,,,,,,,,,,,,Correct,,,,573.0,,,,,,,,,,,,,8B,,,,,,,yes,,,2022-01-27T22:39:05.000Z,363270,group_9,404137,Prediction3/Open2,1,2022-01-27T21:50:41.000Z,,,,not measured,,True
9,Prediction3,4,Prediction_3,21,28,,,,,Second,4_2B_prediction_7.mp3,3,,,,,,,,correct_left,,,,,,,,,,,,,,,,,,,,,,,,,,,,,,,,,Incorrect,,,,1650.0,,,,,,,,,,,,,2B,,,,,,,yes,,,2022-01-27T22:39:05.000Z,363270,group_9,404137,Prediction3/Open2,1,2022-01-27T21:50:41.000Z,,,,not measured,,True
9,Prediction3,4,Prediction_3,22,12,,,,,First,3_8B_prediction_7.mp3,2,,,,,,,,incorrect_left,,,,,,,,,,,,,,,,,,,,,,,,,,,,,,,,,Incorrect,,,,1091.0,,,,,,,,,,,,,8B,,,,,,,yes,,,2022-01-27T22:39:05.000Z,363270,group_9,404137,Prediction3/Open2,1,2022-01-27T21:50:41.000Z,,,,not measured,,True
9,Prediction3,4,Prediction_3,23,13,,,,,Second,3_8B_prediction_8.mp3,2,,,,,,,,incorrect_left,,,,,,,,,,,,,,,,,,,,,,,,,,,,,,,,,Correct,,,,1923.0,,,,,,,,,,,,,8B,,,,,,,yes,,,2022-01-27T22:39:05.000Z,363270,group_9,404137,Prediction3/Open2,1,2022-01-27T21:50:41.000Z,,,,not measured,,True
9,Prediction3,4,Prediction_3,24,58,,,,,First,4_1B_prediction_7.mp3,6,,,,,,,,incorrect_left,,,,,,,,,,,,,,,,,,,,,,,,,,,,,,,,,Incorrect,,,,451.0,,,,,,,,,,,,,1B,,,,,,,yes,,,2022-01-27T22:39:05.000Z,363270,group_9,404137,Prediction3/Open2,1,2022-01-27T21:50:41.000Z,,,,not measured,,True
9,Prediction3,4,Prediction_3,25,50,,,,,Second,4_8B_prediction_9.mp3,5,,,,,,,,correct_left,,,,,,,,,,,,,,,,,,,,,,,,,,,,,,,,,Incorrect,,,,1251.0,,,,,,,,,,,,,1B,,,,,,,yes,,,2022-01-27T22:39:05.000Z,363270,group_9,404137,Prediction3/Open2,1,2022-01-27T21:50:41.000Z,,,,not measured,,True
9,Prediction3,4,Prediction_3,26,31,,,,,Second,3_2B_prediction_6.mp3,4,,,,,,,,incorrect_left,,,,,,,,,,,,,,,,,,,,,,,,,,,,,,,,,Correct,,,,466.0,,,,,,,,,,,,,2B,,,,,,,yes,,,2022-01-27T22:39:05.000Z,363270,group_9,404137,Prediction3/Open2,1,2022-01-27T21:50:41.000Z,,,,not measured,,True
9,Prediction3,4,Prediction_3,27,22,,,,,First,3_2B_prediction_7.mp3,3,,,,,,,,correct_left,,,,,,,,,,,,,,,,,,,,,,,,,,,,,,,,,Correct,,,,1849.0,,,,,,,,,,,,,2B,,,,,,,yes,,,2022-01-27T22:39:05.000Z,363270,group_9,404137,Prediction3/Open2,1,2022-01-27T21:50:41.000Z,,,,not measured,,True
9,Prediction3,4,Prediction_3,28,1,,,,,Second,3_8B_prediction_6.mp3,1,,,,,,,,correct_left,,,,,,,,,,,,,,,,,,,,,,,,,,,,,,,,,Incorrect,,,,874.0,,,,,,,,,,,,,8B,,,,,,,yes,,,2022-01-27T22:39:05.000Z,363270,group_9,404137,Prediction3/Open2,1,2022-01-27T21:50:41.000Z,,,,not measured,,True
9,Prediction3,4,Prediction_3,29,16,,,,,Second,4_8B_prediction_5.mp3,2,,,,,,,,incorrect_left,,,,,,,,,,,,,,,,,,,,,,,,,,,,,,,,,Correct,,,,884.0,,,,,,,,,,,,,8B,,,,,,,yes,,,2022-01-27T22:39:05.000Z,363270,group_9,404137,Prediction3/Open2,1,2022-01-27T21:50:41.000Z,,,,not measured,,True
9,Prediction3,4,Prediction_3,30,35,,,,,Second,3_2B_prediction_10.mp3,4,,,,,,,,incorrect_left,,,,,,,,,,,,,,,,,,,,,,,,,,,,,,,,,Correct,,,,1840.0,,,,,,,,,,,,,2B,,,,,,,yes,,,2022-01-27T22:39:05.000Z,363270,group_9,404137,Prediction3/Open2,1,2022-01-27T21:50:41.000Z,,,,not measured,,True
9,Prediction3,3,Ready?,1,1,,,,,,,1,,,,,,,,,,,,,,,,,,,,,,,,,,,,,,,,,,,,,,,,,,,,,,,,,,,,,,,,,,,,,,,,,yes,,,2022-01-27T22:39:05.000Z,363270,group_9,404137,Prediction3/Open2,1,2022-01-27T21:50:41.000Z,,,,not measured,,True
9,Prediction3,2,Practice_Prediction,1,1,,,,,First,,1,,,,,,,,,,correct_incorrect,,,,,,,,,,,,,,,,,,,,,,,,,,,,,,,Correct,,,,1421.0,,,,,,,,,,,,,,,,,,,,yes,,,2022-01-27T22:39:05.000Z,363270,group_9,404137,Prediction3/Open2,1,2022-01-27T21:50:41.000Z,,,,not measured,,True
9,Prediction3,2,Practice_Prediction,2,5,,,,,Second,,2,,,,,,,,,,incorrect_correct,,,,,,,,,,,,,,,,,,,,,,,,,,,,,,,Correct,,,,680.0,,,,,,,,,,,,,,,,,,,,yes,,,2022-01-27T22:39:05.000Z,363270,group_9,404137,Prediction3/Open2,1,2022-01-27T21:50:41.000Z,,,,not measured,,True
9,Prediction3,2,Practice_Prediction,3,3,,,,,First,,1,,,,,,,,,,correct_incorrect,,,,,,,,,,,,,,,,,,,,,,,,,,,,,,,Correct,,,,666.0,,,,,,,,,,,,,,,,,,,,yes,,,2022-01-27T22:39:05.000Z,363270,group_9,404137,Prediction3/Open2,1,2022-01-27T21:50:41.000Z,,,,not measured,,True
9,Prediction3,1,Instructions_Prediction,1,1,,,,,,,1,,,,,,,,,,,,,,,,,,,,,,,,,,,,,,,,,,,,,,,,,,,,,,,,,,,,,,,,,,,,,,,,,yes,,,2022-01-27T22:39:05.000Z,363270,group_9,404137,Prediction3/Open2,1,2022-01-27T21:50:41.000Z,,,,not measured,,True
7,HP_Screen,3,imported_HP Evaluation,1,1,,,,,,,1,,,,,,,,,,,,,,0.0,,,,,,,,,,,,,,,,,,,,,,,,,,,,,,,,,,,,,,,,,,,,,,,,,,,yes,,,2022-01-27T22:39:05.000Z,363270,group_9,404137,Prediction3/Open2,1,2022-01-27T21:50:41.000Z,,,,not measured,,True
7,HP_Screen,2,imported_HP Trials,1,1,,,,,,,1,,,,,,,,,,,,,,0.0,,,"""times=;;;;;;;;;;;;;;;;;---values=;;;;;;;;;;;;;;;;;""",hp4.3.flac,,,,,,,,,,,,,,,,,,,,,,,choice 3,,,,,,,,,,,,,,,,,,,hp4.3.flac,,,,,yes,,,2022-01-27T22:39:05.000Z,363270,group_9,404137,Prediction3/Open2,1,2022-01-27T21:50:41.000Z,,,,not measured,,True
7,HP_Screen,2,imported_HP Trials,2,4,,,,,,,1,,,,,,,,,,,,,,0.0,,,"""times=;;;;;;;;;;;;;;;;;---values=;;;;;;;;;;;;;;;;;""",hp2.3.flac,,,,,,,,,,,,,,,,,,,,,,,choice 3,,,,,,,,,,,,,,,,,,,hp2.3.flac,,,,,yes,,,2022-01-27T22:39:05.000Z,363270,group_9,404137,Prediction3/Open2,1,2022-01-27T21:50:41.000Z,,,,not measured,,True
7,HP_Screen,2,imported_HP Trials,3,6,,,,,,,1,,,,,,,,,,,,,,0.0,,,"""times=;;;;;;;;;;;;;;;;;---values=;;;;;;;;;;;;;;;;;""",hp4.2.flac,,,,,,,,,,,,,,,,,,,,,,,choice 2,,,,,,,,,,,,,,,,,,,hp4.2.flac,,,,,yes,,,2022-01-27T22:39:05.000Z,363270,group_9,404137,Prediction3/Open2,1,2022-01-27T21:50:41.000Z,,,,not measured,,True
7,HP_Screen,2,imported_HP Trials,4,2,,,,,,,1,,,,,,,,,,,,,,0.0,,,"""times=;;;;;;;;;;;;;;;;;---values=;;;;;;;;;;;;;;;;;""",hp1.3.flac,,,,,,,,,,,,,,,,,,,,,,,choice 3,,,,,,,,,,,,,,,,,,,hp1.3.flac,,,,,yes,,,2022-01-27T22:39:05.000Z,363270,group_9,404137,Prediction3/Open2,1,2022-01-27T21:50:41.000Z,,,,not measured,,True
7,HP_Screen,2,imported_HP Trials,5,5,,,,,,,1,,,,,,,,,,,,,,0.0,,,"""times=;;;;;;;;;;;;;;;;;---values=;;;;;;;;;;;;;;;;;""",hp3.3.flac,,,,,,,,,,,,,,,,,,,,,,,choice 3,,,,,,,,,,,,,,,,,,,hp3.3.flac,,,,,yes,,,2022-01-27T22:39:05.000Z,363270,group_9,404137,Prediction3/Open2,1,2022-01-27T21:50:41.000Z,,,,not measured,,True
7,HP_Screen,2,imported_HP Trials,6,3,,,,,,,1,,,,,,,,,,,,,,0.0,,,"""times=;;;;;;;;;;;;;;;;;---values=;;;;;;;;;;;;;;;;;""",hp5.2.flac,,,,,,,,,,,,,,,,,,,,,,,choice 2,,,,,,,,,,,,,,,,,,,hp5.2.flac,,,,,yes,,,2022-01-27T22:39:05.000Z,363270,group_9,404137,Prediction3/Open2,1,2022-01-27T21:50:41.000Z,,,,not measured,,True
7,HP_Screen,1,imported_HP Instructions,1,1,,,,,,,1,,,,,,,,,,,,,,,2.0,,,,,,,,,,,,,,,,,,,,,,,,,,,,,,,,,,,,,,,,,,,,,,,,,,yes,,,2022-01-27T22:39:05.000Z,363270,group_9,404137,Prediction3/Open2,1,2022-01-27T21:50:41.000Z,,,,not measured,,True
6,AP_Screen,3,imported_AP_eval,1,1,,,,,,,1,,,,,,,,,,,,,,,,,,,,,,,,,,,,,,,0.0,,,,,,,,,,,,,,,,,,,,,,,,,,,,,,,,,,yes,,,2022-01-27T22:39:05.000Z,363270,group_9,404137,Prediction3/Open2,1,2022-01-27T21:50:41.000Z,,,,not measured,,True
6,AP_Screen,2,imported_AP_headphone test,1,3,,,,,,,3,,,,,,,,,,,,one,,,,,,,,,,,,,,,1.0,,,,0.0,,,,,,,,,,,,,,,,,,,,,,,,,,,,,,,,S_O_I,,yes,,,2022-01-27T22:39:05.000Z,363270,group_9,404137,Prediction3/Open2,1,2022-01-27T21:50:41.000Z,,,,not measured,,True
6,AP_Screen,2,imported_AP_headphone test,2,6,,,,,,,6,,,,,,,,,,,,three,,,,,,,,,,,,,,,1.0,,,,0.0,,,,,,,,,,,,,,,,,,,,,,,,,,,,,,,,O_I_S,,yes,,,2022-01-27T22:39:05.000Z,363270,group_9,404137,Prediction3/Open2,1,2022-01-27T21:50:41.000Z,,,,not measured,,True
6,AP_Screen,2,imported_AP_headphone test,3,2,,,,,,,2,,,,,,,,,,,,two,,,,,,,,,,,,,,,1.0,,,,0.0,,,,,,,,,,,,,,,,,,,,,,,,,,,,,,,,I_S_O,,yes,,,2022-01-27T22:39:05.000Z,363270,group_9,404137,Prediction3/Open2,1,2022-01-27T21:50:41.000Z,,,,not measured,,True
6,AP_Screen,2,imported_AP_headphone test,4,5,,,,,,,5,,,,,,,,,,,,two,,,,,,,,,,,,,,,1.0,,,,0.0,,,,,,,,,,,,,,,,,,,,,,,,,,,,,,,,O_S_I,,yes,,,2022-01-27T22:39:05.000Z,363270,group_9,404137,Prediction3/Open2,1,2022-01-27T21:50:41.000Z,,,,not measured,,True
6,AP_Screen,2,imported_AP_headphone test,5,1,,,,,,,1,,,,,,,,,,,,three,,,,,,,,,,,,,,,1.0,,,,0.0,,,,,,,,,,,,,,,,,,,,,,,,,,,,,,,,I_O_S,,yes,,,2022-01-27T22:39:05.000Z,363270,group_9,404137,Prediction3/Open2,1,2022-01-27T21:50:41.000Z,,,,not measured,,True
6,AP_Screen,2,imported_AP_headphone test,6,4,,,,,,,4,,,,,,,,,,,,one,,,,,,,,,,,,,,,1.0,,,,0.0,,,,,,,,,,,,,,,,,,,,,,,,,,,,,,,,S_I_O,,yes,,,2022-01-27T22:39:05.000Z,363270,group_9,404137,Prediction3/Open2,1,2022-01-27T21:50:41.000Z,,,,not measured,,True
6,AP_Screen,1,imported_AP_instruction,1,1,,,,,,,1,,,,,,,,,,,,,,,,,,,,,,,,,,,,,,,,,,,,,,,,,,,,,,,,,,,,,,,,,,,,,,,,,yes,,,2022-01-27T22:39:05.000Z,363270,group_9,404137,Prediction3/Open2,1,2022-01-27T21:50:41.000Z,,,,not measured,,True
4,GenInstructPredOpen,1,InstructionsPredOpen,1,1,,,,,,,1,,,,,,,,,,,,,,,,,,,,,,,,,,,,,,,,,,,,,,,,,,,,,,,,,,,,,,,,,,,,,,,,,yes,,,2022-01-27T22:39:05.000Z,363270,group_9,404137,Prediction3/Open2,1,2022-01-27T21:50:41.000Z,,,,not measured,,True
2,Consent,1,Consent,1,1,,,,,,,1,,,,,,,,,,,,,,,,,,,,,,,,,,,,,,,,,,,,,,,,,,,,,,,,,,,,,,,,,,,,,,,,,yes,,,2022-01-27T22:39:05.000Z,363270,group_9,404137,Prediction3/Open2,1,2022-01-27T21:50:41.000Z,,,,not measured,,True
