Block_Nr,Block_Name,Task_Nr,Task_Name,Trial_Nr,Trial_Id,ab_pitch,age_range,answer,best_instru,choice,clip,Condition_Id,conditions,consent,correct_incorrect_m_2,correct_incorrect_m_3,correct_incorrect_mem_1,correct_incorrect_p_1,correct_incorrect_p_2,correct_incorrect_p_3,correct_incorrect_practice_m,correct_incorrect_practice_p,correctCount,decision,earworm,errorCount,exampleCount,familiarity,fileArray,filePick,Frequenc,genre,genre_3,genre_4,hour,imagery,imagery_2,Instr,isCorrect,listen_time,music_theory,name_instru,nrErrors,num_instru,participant_choice,participant_choice_2,participant_choice2,participant_spacePress,participant_spacePress2,played_notplayed,practice_catseg_scramble,relative_pitch,response,response_seg,response_seg2,response_Time2,responseTime,retestCount,scramble_cat_1,scramble_cat_3,scramble_cat_4,scramble_catseg_4,scramble_level,scramble_m_1,scramble_m_2,scramble_m_3,scramble_open_3,scramble_p_1,scramble_p_2,scramble_p_3,set1response,soundName,strategy,time_atClipStart1,toneSequence,always_fullscreen,completed,crowdsourcing_code,crowdsourcing_subj_id,end_time,exp_subject_id,group_name,rec_session_id,session_name,session_nr,start_time,subj_counter_global,subj_counter_per_group,subject_code,time_delay_offset,time_measure_std,unlocked
13,Post-Survey,1,Post-Survey,1,1,,,,,,,1,,,,,,,,,,,,,,,,1.0,,,,,,,,,,,,,,,,,,,,,,option_1,,,,,,,,,,,,,,,,,,,,,,,"I followed most changes of rythm, so whenever I pressed space bar I was either following the ongoing bakground rythm, most likely the bass. Then focusing on actually catching the changing notes and pressing space bar on those. I actually focused more with my eyes closed than with them open.",,,,yes,,,2022-03-08T23:14:38.000Z,385650,group_1,431844,Memory1/Open4,1,2022-03-08T22:28:25.000Z,,,,not measured,,True
11,OpenEndedSeg_4,4,OpenEndedSeg_4,1,2,,,,,,,1,,,,,,,,,,,,,,,,,,,,,,,,,,,,,,,,,,,,"""times=1646780096560;1646780097193;1646780097653;1646780098123;1646780098664;1646780099543;1646780100820;1646780101441;1646780101879;1646780102205;1646780103743;1646780104986;1646780106932;1646780107495;1646780109100;1646780110423;1646780111562;1646780112968;1646780113873;1646780114826;1646780115242;1646780116474;1646780116974;1646780118006;1646780118849;1646780120892;1646780121998;1646780123406;1646780124383;1646780125282;1646780125595;1646780128414;1646780128977;1646780131894;1646780133182;1646780134425;1646780135262;1646780136943;1646780137930;1646780138620;1646780139156;1646780140505;1646780140985;1646780141936;1646780142876;1646780144925;1646780145890;1646780146555;1646780147434;1646780149020;1646780150889;1646780152906;1646780153919;1646780154542;1646780156933;1646780158936---values=;632;1092;1562;2103;2982;4259;4880;5318;5644;7182;8425;10371;10934;12539;13862;15001;16407;17312;18265;18680;19913;20413;21445;22288;24331;25437;26845;27822;28721;29033;31853;32416;35333;36621;37864;38701;40382;41369;42059;42595;43944;44424;45375;46315;48364;49329;49994;50873;52459;54328;56345;57358;57981;60372;62375""","""times=1646780096560;1646780163438;1646780163832;1646780164567;1646780165539;1646780166535;1646780167368;1646780168121;1646780170926;1646780171589;1646780173362;1646780175616;1646780177342;1646780177664;1646780179439;1646780181216;1646780181507;1646780182943;1646780183378;1646780184431;1646780185340;1646780187639;1646780189607;1646780190455;1646780191651;1646780194879;1646780195366;1646780198263;1646780199622;1646780201278;1646780201710;1646780203384;1646780205361;1646780205998;1646780207052;1646780207474;1646780208406;1646780209300;1646780211400;1646780212435;1646780213721;1646780215540;1646780217359;1646780219357;1646780221524;1646780223885;1646780225621---values=;435;829;1564;2536;3532;4365;5118;7923;8586;10359;12613;14339;14661;16436;18213;18504;19940;20375;21428;22337;24636;26604;27452;28648;31876;32363;35260;36619;38275;38707;40381;42358;42995;44049;44471;45403;46297;48397;49432;50718;52537;54356;56353;58521;60882;62618""",,,,,,,,,,,,intact,,,,,,,,,,,,,,,,yes,,,2022-03-08T23:14:38.000Z,385650,group_1,431844,Memory1/Open4,1,2022-03-08T22:28:25.000Z,,,,not measured,,True
11,OpenEndedSeg_4,4,OpenEndedSeg_4,2,1,,,,,,,1,,,,,,,,,,,,,,,,,,,,,,,,,,,,,,,,,,,,"""times=1646780229954;1646780231764;1646780232321;1646780233067;1646780234104;1646780234993;1646780236060;1646780236971;1646780237732;1646780238841;1646780239439;1646780240200;1646780240935;1646780241396;1646780242049;1646780242712;1646780242979;1646780243890;1646780244774;1646780245045;1646780245934;1646780246706;1646780247011;1646780247978;1646780249004;1646780250027;1646780250941;1646780251956;1646780252894;1646780253906;1646780254886;1646780255529;1646780255776;1646780256148;1646780256936;1646780257492;1646780257708;1646780258080;1646780258749;1646780259000;1646780260062;1646780260742;1646780260984;1646780261955;1646780262792;1646780263107;1646780263964;1646780264994;1646780265326;1646780265853;1646780266946;1646780267989;1646780268979;1646780269282;1646780270027;1646780270984;1646780272027;1646780272813;1646780273065;1646780273869;1646780274954;1646780276032;1646780276994;1646780278862;1646780279951;1646780280892;1646780281943;1646780282971;1646780283988;1646780284850;1646780285992;1646780286978;1646780287988;1646780290012;1646780292026;1646780294039---values=;1810;2367;3113;4150;5039;6106;7017;7778;8887;9485;10246;10981;11442;12095;12758;13025;13936;14820;15091;15980;16752;17057;18024;19050;20073;20987;22002;22940;23951;24932;25575;25822;26194;26982;27538;27754;28126;28795;29046;30108;30788;31030;32001;32838;33153;34010;35040;35372;35899;36992;38035;39025;39328;40073;41030;42073;42859;43111;43915;45000;46078;47040;48908;49997;50938;51989;53017;54034;54896;56038;57024;58034;60058;62072;64085""","""times=1646780229954;1646780297253;1646780298160;1646780299166;1646780299915;1646780300932;1646780301847;1646780302940;1646780303856;1646780304928;1646780305838;1646780306866;1646780307647;1646780307969;1646780308899;1646780309676;1646780310887;1646780311822;1646780312890;1646780313728;1646780314970;1646780315905;1646780316942;1646780317872;1646780318915;1646780319866;1646780320856;1646780321862;1646780322282;1646780322879;1646780323744;1646780323953;1646780324816;1646780325677;1646780325931;1646780326876;1646780327683;1646780327972;1646780328853;1646780329653;1646780330913;1646780331950;1646780332185;1646780333663;1646780334105;1646780334919;1646780335839;1646780336886;1646780337852;1646780338766;1646780339850;1646780340808;1646780341816;1646780342869;1646780343789;1646780344739;1646780345861;1646780346891;1646780347867;1646780348807;1646780349860;1646780350821;1646780351746;1646780352859;1646780353904;1646780356265;1646780356769;1646780357885;1646780359810;1646780360939---values=;437;1344;2350;3099;4116;5031;6124;7040;8112;9022;10050;10831;11153;12083;12860;14071;15006;16074;16912;18154;19089;20126;21056;22099;23050;24040;25046;25466;26063;26928;27137;28000;28861;29115;30060;30867;31156;32037;32837;34096;35134;35369;36847;37289;38103;39023;40070;41036;41950;43034;43992;45000;46053;46973;47923;49045;50075;51051;51991;53044;54005;54930;56043;57088;59449;59953;61069;62994;64123""",,,,,,,,,,,,intact,,,,,,,,,,,,,,,,yes,,,2022-03-08T23:14:38.000Z,385650,group_1,431844,Memory1/Open4,1,2022-03-08T22:28:25.000Z,,,,not measured,,True
11,OpenEndedSeg_4,4,OpenEndedSeg_4,3,14,,,,,,,4,,,,,,,,,,,,,,,,,,,,,,,,,,,,,,,,,,,,"""times=1646780364177;1646780364712;1646780365371;1646780365681;1646780366228;1646780366989;1646780367337;1646780367569;1646780367791;1646780368037;1646780368296;1646780368767;1646780369254;1646780370177;1646780370979;1646780372247;1646780373252;1646780374337;1646780375209;1646780375932;1646780376273;1646780377157;1646780378307;1646780379247;1646780380309;1646780381015;1646780381266;1646780381700;1646780381942;1646780382304;1646780382538;1646780382764;1646780383356;1646780383709;1646780383969;1646780384773;1646780385369;1646780385762;1646780386097;1646780386707;1646780388779;1646780389278;1646780389618;1646780389853;1646780390274;1646780390500;1646780390878;1646780391251;1646780391747;1646780392216;1646780392656;1646780393279;1646780393699;1646780394241;1646780394751;1646780395245;1646780395602;1646780396775;1646780398077;1646780398634;1646780399176;1646780399667;1646780400224;1646780400735;1646780401189;1646780401629;1646780402242;1646780402774;1646780404097;1646780404833;1646780406049;1646780406968;1646780407295;1646780407762;1646780408242;1646780408696;1646780409242;1646780409748;1646780410163;1646780410725;1646780411732;1646780412170;1646780412677;1646780413121;1646780413648;1646780414153;1646780414751;1646780415569;1646780416238;1646780417220;1646780417723;1646780418242;1646780419056;1646780419673;1646780420469;1646780422334;1646780423689;1646780423903;1646780424528;1646780425523;1646780426382;1646780427189;1646780427564;1646780428064;1646780428686---values=;534;1193;1503;2050;2811;3159;3391;3613;3859;4118;4589;5076;5999;6801;8068;9074;10159;11031;11754;12095;12979;14129;15069;16131;16837;17088;17522;17764;18126;18360;18586;19178;19531;19791;20595;21191;21584;21919;22529;24601;25100;25440;25675;26096;26322;26700;27073;27569;28038;28478;29101;29521;30063;30573;31067;31424;32597;33899;34456;34998;35489;36046;36557;37011;37451;38064;38596;39919;40655;41871;42790;43117;43584;44064;44518;45064;45570;45985;46547;47554;47992;48499;48943;49470;49975;50573;51391;52060;53042;53545;54064;54878;55495;56291;58156;59511;59725;60350;61345;62204;63011;63386;63886;64508""","""times=1646780364177;1646780431666;1646780432223;1646780432693;1646780433735;1646780434200;1646780434399;1646780434743;1646780434951;1646780435252;1646780435783;1646780436331;1646780437195;1646780438012;1646780439401;1646780440285;1646780441307;1646780442341;1646780443128;1646780443757;1646780445284;1646780446245;1646780447302;1646780447763;1646780448206;1646780448779;1646780449208;1646780449515;1646780449922;1646780450414;1646780450761;1646780451298;1646780451875;1646780452417;1646780452933;1646780453357;1646780453771;1646780454283;1646780454732;1646780455733;1646780456689;1646780457844;1646780458111;1646780458411;1646780458743;1646780459260;1646780459507;1646780459893;1646780460256;1646780460649;1646780460858;1646780461246;1646780461509;1646780462381;1646780462728;1646780463399;1646780463873;1646780464408;1646780465748;1646780466771;1646780467706;1646780467957;1646780468355;1646780468738;1646780469761;1646780471192;1646780472105;1646780473799;1646780474839;1646780475724;1646780476812;1646780477854;1646780478319;1646780478652;1646780479208;1646780479433;1646780479781;1646780480231;1646780480744;1646780481723;1646780482586;1646780483296;1646780484251;1646780484619;1646780485212;1646780486295;1646780486731;1646780487989;1646780488360;1646780488903;1646780489736;1646780490660;1646780490875;1646780491606;1646780492601;1646780493250;1646780494139;1646780494681;1646780495118;1646780495759---values=;445;1002;1472;2514;2979;3178;3522;3730;4031;4562;5110;5974;6791;8180;9064;10086;11120;11907;12536;14063;15024;16081;16541;16985;17558;17987;18293;18701;19193;19540;20077;20654;21196;21712;22136;22550;23062;23511;24512;25468;26623;26890;27190;27522;28039;28286;28672;29034;29428;29637;30025;30288;31160;31507;32178;32652;33186;34527;35550;36485;36736;37134;37517;38539;39971;40884;42578;43618;44503;45591;46633;47098;47431;47987;48212;48560;49010;49523;50502;51365;52075;53030;53398;53991;55074;55509;56768;57139;57682;58515;59439;59653;60385;61380;62029;62918;63460;63897;64538""",,,,,,,,,,,,1B,,,,,,,,,,,,,,,,yes,,,2022-03-08T23:14:38.000Z,385650,group_1,431844,Memory1/Open4,1,2022-03-08T22:28:25.000Z,,,,not measured,,True
11,OpenEndedSeg_4,4,OpenEndedSeg_4,4,10,,,,,,,3,,,,,,,,,,,,,,,,,,,,,,,,,,,,,,,,,,,,"""times=1646780498754;1646780499255;1646780499710;1646780500240;1646780500783;1646780501723;1646780502867;1646780503252;1646780504080;1646780504867;1646780505908;1646780506265;1646780507103;1646780507994;1646780508873;1646780509808;1646780510119;1646780510808;1646780511627;1646780512249;1646780512833;1646780513395;1646780513855;1646780514283;1646780514825;1646780515300;1646780515964;1646780516818;1646780517105;1646780517778;1646780518024;1646780518711;1646780519425;1646780519776;1646780520359;1646780520827;1646780521283;1646780521677;1646780522107;1646780522342;1646780522797;1646780523226;1646780523802;1646780524038;1646780524452;1646780524830;1646780525280;1646780525694;1646780525960;1646780526251;1646780526800;1646780527289;1646780527881;1646780528985;1646780530207;1646780530451;1646780531715;1646780532351;1646780534725;1646780535331;1646780535730;1646780536743;1646780537478;1646780539232;1646780539838;1646780540038;1646780540605;1646780540916;1646780541192;1646780541478;1646780541790;1646780542430;1646780542813;1646780543332;1646780543620;1646780543840;1646780544293;1646780544876;1646780545255;1646780545516;1646780545792;1646780546231;1646780546720;1646780547172;1646780547443;1646780547692;1646780547989;1646780548305;1646780548601;1646780548944;1646780549261;1646780549570;1646780549854;1646780550365;1646780550845;1646780551309;1646780551642;1646780552280;1646780553339;1646780554208;1646780555363;1646780555817;1646780556293;1646780556773;1646780557278;1646780557518;1646780557800;1646780558279;1646780558864;1646780559327;1646780561214;1646780564524---values=;500;955;1485;2028;2968;4112;4497;5325;6112;7153;7510;8348;9239;10118;11053;11364;12053;12872;13494;14078;14640;15100;15528;16070;16545;17209;18063;18350;19023;19269;19956;20669;21021;21604;22072;22528;22922;23352;23587;24042;24471;25047;25283;25697;26074;26525;26939;27205;27496;28045;28534;29126;30230;31452;31696;32960;33596;35970;36576;36975;37988;38723;40477;41083;41283;41850;42161;42437;42723;43035;43675;44058;44577;44865;45085;45538;46121;46499;46761;47037;47476;47965;48417;48688;48937;49234;49550;49846;50189;50506;50815;51099;51610;52090;52554;52887;53525;54584;55453;56608;57062;57538;58018;58523;58763;59045;59524;60109;60572;62459;65769""","""times=1646780498754;1646780565705;1646780566129;1646780567580;1646780568392;1646780569315;1646780569817;1646780570850;1646780571484;1646780572282;1646780573645;1646780574394;1646780575097;1646780575981;1646780576276;1646780577212;1646780577861;1646780578158;1646780578781;1646780579313;1646780579533;1646780580157;1646780580422;1646780580672;1646780581229;1646780582112;1646780584381;1646780584647;1646780585741;1646780586253;1646780586768;1646780587268;1646780587749;1646780588265;1646780588536;1646780588874;1646780589333;1646780589784;1646780590273;1646780590758;1646780591234;1646780591776;1646780592205;1646780592495;1646780592726;1646780592961;1646780593273;1646780593738;1646780594254;1646780595216;1646780596191;1646780596687;1646780597396;1646780598061;1646780598719;1646780599237;1646780599773;1646780601025;1646780601710;1646780603032;1646780603365;1646780605542;1646780606033;1646780606295;1646780606701;1646780606931;1646780607198;1646780607484;1646780607780;1646780608056;1646780608321;1646780608787;1646780609288;1646780609527;1646780609808;1646780610065;1646780610319;1646780610606;1646780610866;1646780611158;1646780611409;1646780611761;1646780612026;1646780612221;1646780612823;1646780613291;1646780613697;1646780614061;1646780614347;1646780614674;1646780614939;1646780615210;1646780615660;1646780615998;1646780616252;1646780616759;1646780617264;1646780617750;1646780618036;1646780618378;1646780618853;1646780619283;1646780619811;1646780620441;1646780621291;1646780621858;1646780622272;1646780622763;1646780623244;1646780623758;1646780624321;1646780624592;1646780624832;1646780625284;1646780625787;1646780627607---values=;490;914;2365;3177;4099;4602;5635;6269;7067;8430;9179;9882;10766;11061;11997;12646;12943;13566;14098;14318;14942;15207;15457;16014;16897;19166;19432;20526;21037;21553;22053;22534;23050;23321;23659;24118;24569;25058;25543;26019;26561;26990;27280;27511;27746;28058;28523;29039;30001;30976;31472;32181;32846;33504;34022;34558;35810;36494;37817;38150;40327;40818;41080;41486;41716;41983;42269;42565;42841;43106;43572;44073;44312;44593;44850;45103;45391;45651;45943;46194;46546;46811;47006;47608;48076;48482;48846;49132;49459;49724;49995;50445;50783;51036;51544;52049;52535;52821;53163;53638;54068;54596;55226;56076;56643;57056;57548;58029;58543;59106;59377;59617;60068;60572;62392""",,,,,,,,,,,,2B,,,,,,,,,,,,,,,,yes,,,2022-03-08T23:14:38.000Z,385650,group_1,431844,Memory1/Open4,1,2022-03-08T22:28:25.000Z,,,,not measured,,True
11,OpenEndedSeg_4,4,OpenEndedSeg_4,5,12,,,,,,,3,,,,,,,,,,,,,,,,,,,,,,,,,,,,,,,,,,,,"""times=1646780632162;1646780632762;1646780633233;1646780633677;1646780633955;1646780634312;1646780634751;1646780634995;1646780635241;1646780635691;1646780636263;1646780636723;1646780637387;1646780638230;1646780639186;1646780639513;1646780640351;1646780640991;1646780641392;1646780641656;1646780642053;1646780642288;1646780642753;1646780642987;1646780643233;1646780643653;1646780644199;1646780644597;1646780644879;1646780645175;1646780645455;1646780645778;1646780646325;1646780646769;1646780646999;1646780647214;1646780647453;1646780647859;1646780648225;1646780648696;1646780648982;1646780650602;1646780651081;1646780652620;1646780653455;1646780654235;1646780655052;1646780655287;1646780656223;1646780656779;1646780657062;1646780657290;1646780657710;1646780658195;1646780658711;1646780658988;1646780659207;1646780659683;1646780660024;1646780660367;1646780660729;1646780661574;1646780662420;1646780663290;1646780664296;1646780665054;1646780665261;1646780665773;1646780665988;1646780666273;1646780666749;1646780667005;1646780667214;1646780667720;1646780668262;1646780668773;1646780670260;1646780671231;1646780672707;1646780673838;1646780675120;1646780675660;1646780676469;1646780677270;1646780678757;1646780680924;1646780681896;1646780682937;1646780683183;1646780684294;1646780684856;1646780685084;1646780685298;1646780685770;1646780686167;1646780686729;1646780686974;1646780687227;1646780687745;1646780688323;1646780688804;1646780689066;1646780689320;1646780689730;1646780690244;1646780690734;1646780690951;1646780691221;1646780691417;1646780691762;1646780692248---values=;600;1071;1515;1793;2150;2589;2833;3079;3529;4101;4561;5225;6067;7024;7351;8189;8829;9230;9494;9891;10126;10591;10825;11071;11491;12037;12435;12717;13013;13293;13616;14163;14607;14837;15052;15291;15697;16063;16534;16820;18440;18919;20458;21293;22073;22890;23125;24061;24617;24900;25128;25548;26033;26549;26826;27045;27521;27862;28205;28567;29412;30258;31128;32134;32891;33099;33611;33826;34111;34587;34843;35052;35558;36099;36611;38098;39069;40545;41676;42958;43498;44307;45108;46595;48762;49734;50775;51021;52132;52694;52921;53136;53608;54005;54567;54812;55065;55583;56161;56642;56904;57158;57568;58082;58572;58789;59059;59255;59600;60086""","""times=1646780632162;1646780695636;1646780695937;1646780696202;1646780696662;1646780696939;1646780697225;1646780697696;1646780697930;1646780698135;1646780698594;1646780699166;1646780699611;1646780699927;1646780701164;1646780702161;1646780702404;1646780703167;1646780703807;1646780704139;1646780704354;1646780704613;1646780705109;1646780705682;1646780705922;1646780706158;1646780706627;1646780707240;1646780707746;1646780707986;1646780708222;1646780708558;1646780708789;1646780709003;1646780709265;1646780709770;1646780710006;1646780710255;1646780710688;1646780711222;1646780711660;1646780713469;1646780714087;1646780715419;1646780715933;1646780716679;1646780717324;1646780718115;1646780718350;1646780719183;1646780719977;1646780720245;1646780720696;1646780720894;1646780721394;1646780721737;1646780721982;1646780722219;1646780722623;1646780722889;1646780723358;1646780724237;1646780725376;1646780726213;1646780727440;1646780727947;1646780728160;1646780728676;1646780729274;1646780729684;1646780729928;1646780730210;1646780730626;1646780731666;1646780733201;1646780734250;1646780736577;1646780737415;1646780738247;1646780739382;1646780741569;1646780743547;1646780744456;1646780745005;1646780746092;1646780746332;1646780747251;1646780748729;1646780748994;1646780749270;1646780749683;1646780749950;1646780750205;1646780750599;1646780752080;1646780752340;1646780752724;1646780753005;1646780753255;1646780753695;1646780753966;1646780754221;1646780754655;1646780755294---values=;500;801;1066;1526;1803;2089;2560;2793;2999;3458;4030;4475;4791;6028;7025;7268;8031;8671;9003;9218;9477;9973;10546;10786;11022;11491;12104;12610;12850;13086;13422;13653;13867;14129;14634;14870;15119;15552;16085;16524;18333;18951;20282;20797;21543;22188;22979;23214;24047;24841;25109;25560;25758;26258;26601;26846;27083;27487;27753;28222;29101;30240;31077;32304;32810;33024;33540;34138;34548;34792;35073;35490;36530;38065;39114;41441;42279;43111;44246;46433;48411;49319;49869;50955;51196;52115;53592;53858;54133;54547;54814;55069;55463;56944;57204;57588;57869;58119;58559;58830;59085;59519;60158""",,,,,,,,,,,,2B,,,,,,,,,,,,,,,,yes,,,2022-03-08T23:14:38.000Z,385650,group_1,431844,Memory1/Open4,1,2022-03-08T22:28:25.000Z,,,,not measured,,True
11,OpenEndedSeg_4,4,OpenEndedSeg_4,6,13,,,,,,,4,,,,,,,,,,,,,,,,,,,,,,,,,,,,,,,,,,,,"""times=1646780758612;1646780759612;1646780760307;1646780760808;1646780761263;1646780761633;1646780762106;1646780762689;1646780763103;1646780763383;1646780763686;1646780764175;1646780764459;1646780764857;1646780765290;1646780765852;1646780766706;1646780767619;1646780768708;1646780769269;1646780769929;1646780770677;1646780771303;1646780771547;1646780772055;1646780772366;1646780772792;1646780773466;1646780774083;1646780774697;1646780775197;1646780775525;1646780776108;1646780776825;1646780777748;1646780778146;1646780778631;1646780779179;1646780779721;1646780781903;1646780782750;1646780783568;1646780784721;1646780785461;1646780786659;1646780787860;1646780788744;1646780789797;1646780790737;1646780791762;1646780792673;1646780793603;1646780796154;1646780797676;1646780799089;1646780800972;1646780802474;1646780803660;1646780805163;1646780806210;1646780806762;1646780807913;1646780808279;1646780808816;1646780809404;1646780810138;1646780811044;1646780811974;1646780813035;1646780814085;1646780815178;1646780815663;1646780817105;1646780818439;1646780819109;1646780819572;1646780820120;1646780821095;1646780823251---values=;999;1694;2195;2650;3020;3493;4076;4490;4770;5073;5562;5846;6244;6677;7239;8093;9006;10095;10656;11316;12064;12690;12934;13442;13753;14179;14853;15470;16084;16584;16912;17495;18212;19135;19533;20018;20566;21108;23290;24137;24955;26108;26848;28046;29247;30131;31184;32124;33149;34060;34990;37541;39063;40476;42359;43861;45047;46550;47597;48149;49300;49666;50203;50791;51525;52431;53361;54422;55472;56565;57050;58492;59826;60496;60959;61507;62482;64638""","""times=1646780758612;1646780825633;1646780826528;1646780827295;1646780828791;1646780829732;1646780830002;1646780830330;1646780830881;1646780831691;1646780832526;1646780833308;1646780834146;1646780835224;1646780836436;1646780837463;1646780838071;1646780838719;1646780839251;1646780839911;1646780841210;1646780842266;1646780843226;1646780844239;1646780845224;1646780846210;1646780848434;1646780849195;1646780850191;1646780851270;1646780852271;1646780853303;1646780854453;1646780855294;1646780855751;1646780856037;1646780856285;1646780856738;1646780857259;1646780858240;1646780858667;1646780859431;1646780860130;1646780862016;1646780863107;1646780865563;1646780867581;1646780869130;1646780869704;1646780871673;1646780872440;1646780873309;1646780874136;1646780874612;1646780875107;1646780875644;1646780875899;1646780876175;1646780876708;1646780877197;1646780878183;1646780879134;1646780880130;1646780880791;1646780881219;1646780882113;1646780885343;1646780885761;1646780886181;1646780886725;1646780887413;1646780889783---values=;484;1379;2146;3642;4583;4853;5181;5732;6542;7377;8159;8997;10075;11287;12314;12921;13570;14102;14762;16061;17117;18077;19090;20075;21061;23285;24046;25042;26120;27122;28154;29304;30145;30602;30888;31136;31589;32110;33091;33518;34282;34981;36867;37958;40414;42432;43981;44555;46524;47291;48160;48986;49463;49958;50495;50750;51026;51559;52048;53034;53985;54981;55642;56070;56964;60194;60612;61032;61576;62264;64634""",,,,,,,,,,,,1B,,,,,,,,,,,,,,,,yes,,,2022-03-08T23:14:38.000Z,385650,group_1,431844,Memory1/Open4,1,2022-03-08T22:28:25.000Z,,,,not measured,,True
11,OpenEndedSeg_4,4,OpenEndedSeg_4,7,8,,,,,,,2,,,,,,,,,,,,,,,,,,,,,,,,,,,,,,,,,,,,"""times=1646780892190;1646780892782;1646780893161;1646780893412;1646780893779;1646780894061;1646780894356;1646780894709;1646780895138;1646780895410;1646780895798;1646780896259;1646780896763;1646780897009;1646780897255;1646780897485;1646780897724;1646780897967;1646780898262;1646780898705;1646780898967;1646780899217;1646780899723;1646780900313;1646780900775;1646780901011;1646780901301;1646780901546;1646780901838;1646780902123;1646780902354;1646780902810;1646780903054;1646780903294;1646780903703;1646780904260;1646780904756;1646780905062;1646780905297;1646780905491;1646780905773;1646780905987;1646780906304;1646780906787;1646780907041;1646780907320;1646780907740;1646780908278;1646780908712;1646780909035;1646780909283;1646780909703;1646780909947;1646780910281;1646780910505;1646780910709;1646780911271;1646780911532;1646780911728;1646780912179;1646780912691;1646780912954;1646780913198;1646780913719;1646780914148;1646780914648;1646780915196;1646780915651;1646780916243;1646780916703;1646780917183;1646780917429;1646780917711;1646780918169;1646780918700;1646780919161;1646780919380;1646780920259;1646780920703;1646780921143;1646780921399;1646780921664;1646780922232;1646780922738;1646780923187;1646780923546;1646780923837;1646780924296;1646780924710;1646780925313;1646780925849;1646780927142;1646780927735;1646780928267;1646780928721;1646780928972;1646780929197;1646780929437;1646780929827;1646780930055;1646780930342;1646780930713;1646780930975;1646780931209;1646780931450;1646780931854;1646780932231;1646780932692;1646780932958;1646780933198;1646780933479;1646780933723;1646780933990;1646780934276;1646780934658;1646780934941;1646780935151;1646780935411;1646780935755;1646780936264;1646780936794;1646780937056;1646780937337;1646780937603;1646780937863;1646780938114;1646780938343;1646780938824;1646780939044;1646780939273;1646780939666;1646780940268;1646780940719;1646780942560;1646780943188;1646780943596;1646780944219;1646780944720;1646780946096;1646780946780;1646780948539;1646780949509;1646780949949;1646780950271;1646780950725;1646780952038;1646780952512;1646780953540;1646780954435---values=;592;971;1222;1589;1870;2166;2519;2948;3220;3608;4069;4573;4819;5065;5295;5534;5777;6072;6515;6777;7027;7533;8123;8585;8820;9111;9356;9648;9933;10164;10620;10864;11104;11513;12070;12566;12872;13107;13301;13583;13797;14114;14597;14851;15130;15550;16088;16522;16845;17093;17513;17757;18091;18315;18519;19081;19342;19538;19989;20501;20764;21008;21529;21958;22458;23006;23461;24053;24513;24993;25239;25521;25979;26510;26971;27190;28069;28513;28953;29209;29474;30042;30548;30997;31356;31647;32106;32520;33123;33659;34952;35545;36077;36531;36782;37007;37247;37637;37865;38152;38523;38785;39019;39260;39664;40041;40502;40768;41008;41289;41533;41800;42086;42468;42750;42961;43221;43565;44074;44604;44866;45147;45413;45673;45923;46153;46634;46854;47083;47476;48077;48529;50370;50998;51406;52029;52530;53906;54590;56349;57319;57759;58081;58535;59848;60322;61349;62245""","""times=1646780892190;1646780959081;1646780959346;1646780959605;1646780959826;1646780960051;1646780960270;1646780960480;1646780960854;1646780961236;1646780961574;1646780961797;1646780962247;1646780962749;1646780963249;1646780963482;1646780963786;1646780964114;1646780964323;1646780964613;1646780964912;1646780965273;1646780965492;1646780965692;1646780966168;1646780966755;1646780967200;1646780967440;1646780967669;1646780967930;1646780968170;1646780968414;1646780968737;1646780969217;1646780969493;1646780969703;1646780970173;1646780970696;1646780971154;1646780971419;1646780971686;1646780971921;1646780972228;1646780972478;1646780972790;1646780973193;1646780973459;1646780973719;1646780974200;1646780974655;1646780975172;1646780975422;1646780975652;1646780975932;1646780976377;1646780976740;1646780977246;1646780977486;1646780977910;1646780978229;1646780978712;1646780979208;1646780979462;1646780979682;1646780980157;1646780980414;1646780980806;1646780981257;1646780981732;1646780982190;1646780982719;1646780983219;1646780983709;1646780984228;1646780984717;1646780985191;1646780985677;1646780985892;1646780986168;1646780986683;1646780987257;1646780987681;1646780988197;1646780988738;1646780989244;1646780989739;1646780990031;1646780990275;1646780990757;1646780991318;1646780992429;1646780993441;1646780993761;1646780994012;1646780994534;1646780994912;1646780995278;1646780995801;1646780996060;1646780996290;1646780996556;1646780996812;1646780997210;1646780997466;1646780997706;1646780998232;1646780998820;1646781000746;1646781002724;1646781004752;1646781006664;1646781007348;1646781009776;1646781010490;1646781012642;1646781013542;1646781015043;1646781016000;1646781016404;1646781016761;1646781017226;1646781017900;1646781018861;1646781019357;1646781020778---values=;396;661;920;1141;1366;1585;1795;2169;2551;2889;3112;3562;4064;4564;4797;5101;5428;5637;5928;6227;6588;6807;7007;7483;8070;8515;8755;8984;9245;9485;9729;10052;10532;10808;11018;11488;12011;12469;12734;13001;13236;13543;13793;14104;14508;14774;15034;15515;15970;16487;16737;16967;17247;17692;18055;18560;18801;19225;19544;20027;20523;20777;20997;21472;21729;22121;22572;23047;23504;24034;24534;25024;25543;26032;26506;26992;27207;27483;27998;28572;28996;29512;30053;30559;31054;31346;31590;32072;32633;33744;34756;35076;35327;35849;36227;36593;37116;37375;37605;37871;38127;38525;38781;39021;39547;40135;42061;44039;46067;47979;48663;51091;51805;53957;54857;56358;57315;57718;58076;58541;59215;60176;60671;62092""",,,,,,,,,,,,8B,,,,,,,,,,,,,,,,yes,,,2022-03-08T23:14:38.000Z,385650,group_1,431844,Memory1/Open4,1,2022-03-08T22:28:25.000Z,,,,not measured,,True
11,OpenEndedSeg_4,4,OpenEndedSeg_4,8,7,,,,,,,2,,,,,,,,,,,,,,,,,,,,,,,,,,,,,,,,,,,,"""times=1646781025696;1646781026159;1646781026552;1646781026848;1646781027155;1646781027385;1646781027645;1646781028156;1646781028626;1646781029050;1646781029332;1646781029771;1646781030221;1646781030650;1646781030950;1646781031202;1646781031682;1646781032137;1646781032662;1646781032974;1646781033200;1646781033434;1646781033776;1646781034181;1646781034706;1646781034991;1646781035234;1646781035428;1646781035801;1646781036195;1646781036664;1646781037170;1646781037415;1646781037742;1646781038157;1646781038662;1646781038925;1646781039147;1646781039398;1646781039735;1646781040128;1646781040640;1646781040939;1646781041128;1646781041335;1646781041774;1646781042179;1646781042745;1646781043695;1646781044580;1646781045652;1646781046577;1646781048586;1646781049276;1646781049981;1646781050677;1646781051040;1646781051743;1646781052611;1646781052863;1646781053620;1646781054478;1646781054743;1646781055700;1646781056470;1646781056700;1646781057779;1646781058382;1646781058602;1646781059659;1646781061396;1646781061623;1646781062548;1646781063722;1646781064717;1646781065014;1646781065733;1646781066732;1646781067688;1646781068673;1646781071801;1646781072521;1646781073862;1646781075449;1646781076016;1646781076766;1646781077447;1646781078525;1646781079614;1646781080579;1646781080814;1646781081704;1646781082694;1646781083686;1646781084525;1646781085638;1646781086777;1646781087642;1646781088546;1646781089797---values=;462;855;1151;1458;1688;1948;2459;2929;3353;3635;4074;4524;4953;5253;5505;5985;6440;6965;7277;7503;7737;8079;8484;9009;9294;9537;9731;10104;10498;10967;11473;11718;12045;12460;12965;13228;13450;13701;14038;14431;14943;15241;15431;15638;16077;16482;17048;17998;18883;19955;20880;22889;23579;24284;24980;25343;26046;26914;27166;27923;28781;29046;30003;30773;31003;32082;32685;32905;33962;35699;35926;36851;38025;39020;39317;40036;41035;41991;42976;46104;46824;48165;49752;50319;51069;51750;52828;53917;54882;55117;56007;56997;57989;58828;59941;61080;61945;62849;64100""","""times=1646781025696;1646781092623;1646781093155;1646781093453;1646781093685;1646781094172;1646781094421;1646781095102;1646781095597;1646781096118;1646781096584;1646781097146;1646781097426;1646781097733;1646781098223;1646781098618;1646781099076;1646781099352;1646781099624;1646781100115;1646781100520;1646781101105;1646781101362;1646781101602;1646781102123;1646781102551;1646781103067;1646781103584;1646781104137;1646781104571;1646781105097;1646781105608;1646781106096;1646781106609;1646781107146;1646781107591;1646781108178;1646781108563;1646781108924;1646781110059;1646781111024;1646781112169;1646781113129;1646781114128;1646781115133;1646781116069;1646781117059;1646781118091;1646781118873;1646781119129;1646781120023;1646781121048;1646781121253;1646781122128;1646781122895;1646781123088;1646781124084;1646781124955;1646781125179;1646781126108;1646781127126;1646781127688;1646781128188;1646781129036;1646781130095;1646781130886;1646781131117;1646781132032;1646781133182;1646781134070;1646781135057;1646781135843;1646781136942;1646781138041;1646781138879;1646781139103;1646781140109;1646781141015;1646781142087;1646781143022;1646781144071;1646781144959;1646781146028;1646781146840;1646781147121;1646781147918;1646781149090;1646781150008;1646781150876;1646781151162;1646781151955;1646781153271;1646781154083;1646781154802;1646781155077;1646781155983---values=;548;1080;1378;1610;2097;2346;3027;3522;4043;4509;5071;5351;5658;6148;6543;7001;7277;7549;8040;8445;9030;9287;9527;10048;10476;10992;11509;12062;12496;13022;13533;14021;14534;15071;15516;16103;16488;16849;17984;18949;20094;21054;22053;23058;23994;24984;26016;26798;27054;27948;28973;29178;30053;30820;31013;32009;32880;33104;34033;35051;35613;36113;36961;38020;38811;39042;39957;41107;41995;42982;43768;44867;45966;46804;47028;48034;48940;50012;50947;51996;52884;53952;54765;55046;55843;57015;57932;58801;59087;59880;61195;62008;62727;63002;63908""",,,,,,,,,,,,8B,,,,,,,,,,,,,,,,yes,,,2022-03-08T23:14:38.000Z,385650,group_1,431844,Memory1/Open4,1,2022-03-08T22:28:25.000Z,,,,not measured,,True
11,OpenEndedSeg_4,3,Ready?,1,1,,,,,,,1,,,,,,,,,,,,,,,,,,,,,,,,,,,,,,,,,,,,,,,,,,,,,,,,,,,,,,,,,,,,,,,,,yes,,,2022-03-08T23:14:38.000Z,385650,group_1,431844,Memory1/Open4,1,2022-03-08T22:28:25.000Z,,,,not measured,,True
11,OpenEndedSeg_4,2,Practice_OpenEnded,1,1,,,,,,,1,,,,,,,,,,,,,,,,,,,,,,,,,,,,,,,,,,,,"""times=1646779973683;1646779974113;1646779974621;1646779975155;1646779975637;1646779976124;1646779976980;1646779977656;1646779978663;1646779979681;1646779980179;1646779980768;1646779981683;1646779982664;1646779985122;1646779985939;1646779986720;1646779987825;1646779988704;1646779990047;1646779990539;1646779991289;1646779992791;1646779993584;1646779994064;1646779994689;1646779996123;1646779996936;1646779997914;1646779998602;1646779999225;1646779999603;1646780000614;1646780001672;1646780002690;1646780003649;1646780003989;1646780004298;1646780004651;1646780005286;1646780005643;1646780006364;1646780006736;1646780007120;1646780007667;1646780008367;1646780008785---values=37032;37463;37971;38505;38987;39473;40330;41006;42013;43031;43529;44118;45033;46014;48472;49289;50070;51174;52054;53397;53889;54639;56141;56934;57414;58039;59473;60286;61264;61952;62574;62953;63964;65022;66040;66999;67339;67648;68001;68636;68992;69714;70086;70470;71017;71717;72135""","""times=1646780012547;1646780013134;1646780014837;1646780015178;1646780016062;1646780018321;1646780018709;1646780019348;1646780020126;1646780021127;1646780024329;1646780025138;1646780026380;1646780026855;1646780027337;1646780027777;1646780028144;1646780029194;1646780029663;1646780030043;1646780031005;1646780032189;1646780033069;1646780033718;1646780035011;1646780035607;1646780036180;1646780036949;1646780037657;1646780038368;1646780038732;1646780039154;1646780039611;1646780040075;1646780041127;1646780042394;1646780043114;1646780043477;1646780044444;1646780044974;1646780045455;1646780046003;1646780046696;1646780046923;1646780047846;1646780048576;1646780050124;1646780051473;1646780052529;1646780053340;1646780054144;1646780055301;1646780056108;1646780057095;1646780058125;1646780060437;1646780061336;1646780062818;1646780063275;1646780064045;1646780065440;1646780065985;1646780067060;1646780068107;1646780068981;1646780069446;1646780070126;1646780071413;1646780072359;1646780073349;1646780074275;1646780074663;1646780075071;1646780076053;1646780077208;1646780078174;1646780079011;1646780079380;1646780079886;1646780080846;1646780081137;1646780081638;1646780082057;1646780082652;1646780083115;1646780084000---values=494;1081;2784;3125;4009;6268;6656;7295;8073;9074;12276;13085;14326;14802;15284;15724;16091;17141;17610;17989;18952;20136;21016;21665;22958;23554;24127;24896;25604;26315;26679;27101;27558;28022;29074;30341;31061;31424;32391;32921;33402;33950;34643;34870;35793;36523;38071;39420;40476;41287;42091;43248;44055;45042;46071;48384;49283;50765;51222;51992;53387;53932;55007;56054;56928;57393;58073;59360;60306;61296;62222;62610;63018;64000;65155;66121;66958;67327;67833;68792;69084;69585;70004;70599;71062;71947""",,,,,,,,,,,,,,,,,,,,,,,,,,,,yes,,,2022-03-08T23:14:38.000Z,385650,group_1,431844,Memory1/Open4,1,2022-03-08T22:28:25.000Z,,,,not measured,,True
11,OpenEndedSeg_4,1,Instructions_Open,1,1,,,,,,,1,,,,,,,,,,,,,,,,,,,,,,,,,,,,,,,,,,,,,,,,,,,,,,,,,,,,,,,,,,,,,,,,,yes,,,2022-03-08T23:14:38.000Z,385650,group_1,431844,Memory1/Open4,1,2022-03-08T22:28:25.000Z,,,,not measured,,True
9,Memory 1,4,Memory_1,1,3,,,,,,2_8B_memory_3.mp3,1,,,,,correct_left,,,,,,,,,,,,,,,,,,,,,,,,,,,,,,,,,,,,,,,,,,,,,,,8B,,,,,,,,,,,,,yes,,,2022-03-08T23:14:38.000Z,385650,group_1,431844,Memory1/Open4,1,2022-03-08T22:28:25.000Z,,,,not measured,,True
9,Memory 1,4,Memory_1,2,38,,,,,Second,3_2B_memory_3.mp3,4,,,,,incorrect_left,,,,,,,,,,,,,,,,,,,,,,,,,,,,,,,,,,,,Correct,,,,1400.0,,,,,,,2B,,,,,,,,,,,,,yes,,,2022-03-08T23:14:38.000Z,385650,group_1,431844,Memory1/Open4,1,2022-03-08T22:28:25.000Z,,,,not measured,,True
9,Memory 1,4,Memory_1,3,48,,,,,First,3_1B_memory_3.mp3,5,,,,,correct_left,,,,,,,,,,,,,,,,,,,,,,,,,,,,,,,,,,,,Correct,,,,2385.0,,,,,,,1B,,,,,,,,,,,,,yes,,,2022-03-08T23:14:38.000Z,385650,group_1,431844,Memory1/Open4,1,2022-03-08T22:28:25.000Z,,,,not measured,,True
9,Memory 1,4,Memory_1,4,33,,,,,First,2_2B_memory_3.mp3,4,,,,,incorrect_left,,,,,,,,,,,,,,,,,,,,,,,,,,,,,,,,,,,,Incorrect,,,,1909.0,,,,,,,2B,,,,,,,,,,,,,yes,,,2022-03-08T23:14:38.000Z,385650,group_1,431844,Memory1/Open4,1,2022-03-08T22:28:25.000Z,,,,not measured,,True
9,Memory 1,4,Memory_1,5,60,,,,,,3_1B_memory_5.mp3,6,,,,,incorrect_left,,,,,,,,,,,,,,,,,,,,,,,,,,,,,,,,,,,,,,,,,,,,,,,1B,,,,,,,,,,,,,yes,,,2022-03-08T23:14:38.000Z,385650,group_1,431844,Memory1/Open4,1,2022-03-08T22:28:25.000Z,,,,not measured,,True
9,Memory 1,4,Memory_1,6,11,,,,,,2_8B_memory_1.mp3,2,,,,,incorrect_left,,,,,,,,,,,,,,,,,,,,,,,,,,,,,,,,,,,,,,,,,,,,,,,8B,,,,,,,,,,,,,yes,,,2022-03-08T23:14:38.000Z,385650,group_1,431844,Memory1/Open4,1,2022-03-08T22:28:25.000Z,,,,not measured,,True
9,Memory 1,4,Memory_1,7,9,,,,,,3_8B_memory_4.mp3,1,,,,,correct_left,,,,,,,,,,,,,,,,,,,,,,,,,,,,,,,,,,,,,,,,,,,,,,,8B,,,,,,,,,,,,,yes,,,2022-03-08T23:14:38.000Z,385650,group_1,431844,Memory1/Open4,1,2022-03-08T22:28:25.000Z,,,,not measured,,True
9,Memory 1,4,Memory_1,8,37,,,,,,3_2B_memory_2.mp3,4,,,,,incorrect_left,,,,,,,,,,,,,,,,,,,,,,,,,,,,,,,,,,,,,,,,,,,,,,,2B,,,,,,,,,,,,,yes,,,2022-03-08T23:14:38.000Z,385650,group_1,431844,Memory1/Open4,1,2022-03-08T22:28:25.000Z,,,,not measured,,True
9,Memory 1,4,Memory_1,9,16,,,,,,3_8B_memory_1.mp3,2,,,,,incorrect_left,,,,,,,,,,,,,,,,,,,,,,,,,,,,,,,,,,,,,,,,,,,,,,,8B,,,,,,,,,,,,,yes,,,2022-03-08T23:14:38.000Z,385650,group_1,431844,Memory1/Open4,1,2022-03-08T22:28:25.000Z,,,,not measured,,True
9,Memory 1,4,Memory_1,10,45,,,,,,2_1B_memory_5.mp3,5,,,,,correct_left,,,,,,,,,,,,,,,,,,,,,,,,,,,,,,,,,,,,,,,,,,,,,,,1B,,,,,,,,,,,,,yes,,,2022-03-08T23:14:38.000Z,385650,group_1,431844,Memory1/Open4,1,2022-03-08T22:28:25.000Z,,,,not measured,,True
9,Memory 1,4,Memory_1,11,20,,,,,,3_8B_memory_5.mp3,2,,,,,incorrect_left,,,,,,,,,,,,,,,,,,,,,,,,,,,,,,,,,,,,,,,,,,,,,,,8B,,,,,,,,,,,,,yes,,,2022-03-08T23:14:38.000Z,385650,group_1,431844,Memory1/Open4,1,2022-03-08T22:28:25.000Z,,,,not measured,,True
9,Memory 1,4,Memory_1,12,30,,,,,,3_2B_memory_5.mp3,3,,,,,correct_left,,,,,,,,,,,,,,,,,,,,,,,,,,,,,,,,,,,,,,,,,,,,,,,2B,,,,,,,,,,,,,yes,,,2022-03-08T23:14:38.000Z,385650,group_1,431844,Memory1/Open4,1,2022-03-08T22:28:25.000Z,,,,not measured,,True
9,Memory 1,4,Memory_1,13,18,,,,,,3_8B_memory_3.mp3,2,,,,,incorrect_left,,,,,,,,,,,,,,,,,,,,,,,,,,,,,,,,,,,,,,,,,,,,,,,8B,,,,,,,,,,,,,yes,,,2022-03-08T23:14:38.000Z,385650,group_1,431844,Memory1/Open4,1,2022-03-08T22:28:25.000Z,,,,not measured,,True
9,Memory 1,4,Memory_1,14,4,,,,,,2_8B_memory_4.mp3,1,,,,,correct_left,,,,,,,,,,,,,,,,,,,,,,,,,,,,,,,,,,,,,,,,,,,,,,,8B,,,,,,,,,,,,,yes,,,2022-03-08T23:14:38.000Z,385650,group_1,431844,Memory1/Open4,1,2022-03-08T22:28:25.000Z,,,,not measured,,True
9,Memory 1,4,Memory_1,15,46,,,,,,3_1B_memory_1.mp3,5,,,,,correct_left,,,,,,,,,,,,,,,,,,,,,,,,,,,,,,,,,,,,,,,,,,,,,,,1B,,,,,,,,,,,,,yes,,,2022-03-08T23:14:38.000Z,385650,group_1,431844,Memory1/Open4,1,2022-03-08T22:28:25.000Z,,,,not measured,,True
9,Memory 1,4,Memory_1,16,25,,,,,First,2_2B_memory_5.mp3,3,,,,,correct_left,,,,,,,,,,,,,,,,,,,,,,,,,,,,,,,,,,,,Correct,,,,605.0,,,,,,,2B,,,,,,,,,,,,,yes,,,2022-03-08T23:14:38.000Z,385650,group_1,431844,Memory1/Open4,1,2022-03-08T22:28:25.000Z,,,,not measured,,True
9,Memory 1,4,Memory_1,17,39,,,,,Second,3_2B_memory_4.mp3,4,,,,,incorrect_left,,,,,,,,,,,,,,,,,,,,,,,,,,,,,,,,,,,,Correct,,,,755.0,,,,,,,2B,,,,,,,,,,,,,yes,,,2022-03-08T23:14:38.000Z,385650,group_1,431844,Memory1/Open4,1,2022-03-08T22:28:25.000Z,,,,not measured,,True
9,Memory 1,4,Memory_1,18,2,,,,,Second,2_8B_memory_2.mp3,1,,,,,correct_left,,,,,,,,,,,,,,,,,,,,,,,,,,,,,,,,,,,,Incorrect,,,,2902.0,,,,,,,8B,,,,,,,,,,,,,yes,,,2022-03-08T23:14:38.000Z,385650,group_1,431844,Memory1/Open4,1,2022-03-08T22:28:25.000Z,,,,not measured,,True
9,Memory 1,4,Memory_1,19,59,,,,,Second,3_1B_memory_4.mp3,6,,,,,incorrect_left,,,,,,,,,,,,,,,,,,,,,,,,,,,,,,,,,,,,Correct,,,,2273.0,,,,,,,1B,,,,,,,,,,,,,yes,,,2022-03-08T23:14:38.000Z,385650,group_1,431844,Memory1/Open4,1,2022-03-08T22:28:25.000Z,,,,not measured,,True
9,Memory 1,4,Memory_1,20,15,,,,,Second,2_8B_memory_5.mp3,2,,,,,incorrect_left,,,,,,,,,,,,,,,,,,,,,,,,,,,,,,,,,,,,Correct,,,,742.0,,,,,,,8B,,,,,,,,,,,,,yes,,,2022-03-08T23:14:38.000Z,385650,group_1,431844,Memory1/Open4,1,2022-03-08T22:28:25.000Z,,,,not measured,,True
9,Memory 1,4,Memory_1,21,44,,,,,Second,2_1B_memory_4.mp3,5,,,,,correct_left,,,,,,,,,,,,,,,,,,,,,,,,,,,,,,,,,,,,Incorrect,,,,725.0,,,,,,,1B,,,,,,,,,,,,,yes,,,2022-03-08T23:14:38.000Z,385650,group_1,431844,Memory1/Open4,1,2022-03-08T22:28:25.000Z,,,,not measured,,True
9,Memory 1,4,Memory_1,22,24,,,,,First,2_2B_memory_4.mp3,3,,,,,correct_left,,,,,,,,,,,,,,,,,,,,,,,,,,,,,,,,,,,,Correct,,,,948.0,,,,,,,2B,,,,,,,,,,,,,yes,,,2022-03-08T23:14:38.000Z,385650,group_1,431844,Memory1/Open4,1,2022-03-08T22:28:25.000Z,,,,not measured,,True
9,Memory 1,4,Memory_1,23,52,,,,,Second,2_1B_memory_2.mp3,6,,,,,incorrect_left,,,,,,,,,,,,,,,,,,,,,,,,,,,,,,,,,,,,Correct,,,,852.0,,,,,,,1B,,,,,,,,,,,,,yes,,,2022-03-08T23:14:38.000Z,385650,group_1,431844,Memory1/Open4,1,2022-03-08T22:28:25.000Z,,,,not measured,,True
9,Memory 1,4,Memory_1,24,21,,,,,Second,2_2B_memory_1.mp3,3,,,,,correct_left,,,,,,,,,,,,,,,,,,,,,,,,,,,,,,,,,,,,Incorrect,,,,661.0,,,,,,,2B,,,,,,,,,,,,,yes,,,2022-03-08T23:14:38.000Z,385650,group_1,431844,Memory1/Open4,1,2022-03-08T22:28:25.000Z,,,,not measured,,True
9,Memory 1,4,Memory_1,25,41,,,,,First,2_1B_memory_1.mp3,5,,,,,correct_left,,,,,,,,,,,,,,,,,,,,,,,,,,,,,,,,,,,,Correct,,,,714.0,,,,,,,1B,,,,,,,,,,,,,yes,,,2022-03-08T23:14:38.000Z,385650,group_1,431844,Memory1/Open4,1,2022-03-08T22:28:25.000Z,,,,not measured,,True
9,Memory 1,4,Memory_1,26,7,,,,,First,3_8B_memory_2.mp3,1,,,,,correct_left,,,,,,,,,,,,,,,,,,,,,,,,,,,,,,,,,,,,Correct,,,,2086.0,,,,,,,8B,,,,,,,,,,,,,yes,,,2022-03-08T23:14:38.000Z,385650,group_1,431844,Memory1/Open4,1,2022-03-08T22:28:25.000Z,,,,not measured,,True
9,Memory 1,4,Memory_1,27,32,,,,,Second,2_2B_memory_2.mp3,4,,,,,incorrect_left,,,,,,,,,,,,,,,,,,,,,,,,,,,,,,,,,,,,Correct,,,,553.0,,,,,,,2B,,,,,,,,,,,,,yes,,,2022-03-08T23:14:38.000Z,385650,group_1,431844,Memory1/Open4,1,2022-03-08T22:28:25.000Z,,,,not measured,,True
9,Memory 1,4,Memory_1,28,53,,,,,First,2_1B_memory_3.mp3,6,,,,,incorrect_left,,,,,,,,,,,,,,,,,,,,,,,,,,,,,,,,,,,,Incorrect,,,,1005.0,,,,,,,1B,,,,,,,,,,,,,yes,,,2022-03-08T23:14:38.000Z,385650,group_1,431844,Memory1/Open4,1,2022-03-08T22:28:25.000Z,,,,not measured,,True
9,Memory 1,4,Memory_1,29,26,,,,,First,3_2B_memory_1.mp3,3,,,,,correct_left,,,,,,,,,,,,,,,,,,,,,,,,,,,,,,,,,,,,Correct,,,,849.0,,,,,,,2B,,,,,,,,,,,,,yes,,,2022-03-08T23:14:38.000Z,385650,group_1,431844,Memory1/Open4,1,2022-03-08T22:28:25.000Z,,,,not measured,,True
9,Memory 1,4,Memory_1,30,57,,,,,First,3_1B_memory_2.mp3,6,,,,,incorrect_left,,,,,,,,,,,,,,,,,,,,,,,,,,,,,,,,,,,,Incorrect,,,,1592.0,,,,,,,1B,,,,,,,,,,,,,yes,,,2022-03-08T23:14:38.000Z,385650,group_1,431844,Memory1/Open4,1,2022-03-08T22:28:25.000Z,,,,not measured,,True
9,Memory 1,3,Ready?,1,1,,,,,,,1,,,,,,,,,,,,,,,,,,,,,,,,,,,,,,,,,,,,,,,,,,,,,,,,,,,,,,,,,,,,,,,,,yes,,,2022-03-08T23:14:38.000Z,385650,group_1,431844,Memory1/Open4,1,2022-03-08T22:28:25.000Z,,,,not measured,,True
9,Memory 1,2,Practice_Memory,1,6,,,,,,,2,,,,,,,,,incorrect_correc,,,,,,,,,,,,,,,,,,,,,,,,,,,,,,,,,,,,,,,,,,,,,,,,,,,,,,,,yes,,,2022-03-08T23:14:38.000Z,385650,group_1,431844,Memory1/Open4,1,2022-03-08T22:28:25.000Z,,,,not measured,,True
9,Memory 1,2,Practice_Memory,2,4,,,,,,,2,,,,,,,,,incorrect_correc,,,,,,,,,,,,,,,,,,,,,,,,,,,,,,,,,,,,,,,,,,,,,,,,,,,,,,,,yes,,,2022-03-08T23:14:38.000Z,385650,group_1,431844,Memory1/Open4,1,2022-03-08T22:28:25.000Z,,,,not measured,,True
9,Memory 1,2,Practice_Memory,3,5,,,,,,,2,,,,,,,,,incorrect_correc,,,,,,,,,,,,,,,,,,,,,,,,,,,,,,,,,,,,,,,,,,,,,,,,,,,,,,,,yes,,,2022-03-08T23:14:38.000Z,385650,group_1,431844,Memory1/Open4,1,2022-03-08T22:28:25.000Z,,,,not measured,,True
9,Memory 1,1,Instructions_Memory,1,1,,,,,,,1,,,,,,,,,,,,,,,,,,,,,,,,,,,,,,,,,,,,,,,,,,,,,,,,,,,,,,,,,,,,,,,,,yes,,,2022-03-08T23:14:38.000Z,385650,group_1,431844,Memory1/Open4,1,2022-03-08T22:28:25.000Z,,,,not measured,,True
7,AP_Screen,3,imported_AP_eval,1,1,,,,,,,1,,,,,,,,,,,,,,,,,,,,,,,,,,,,,,,0.0,,,,,,,,,,,,,,,,,,,,,,,,,,,,,,,,,,yes,,,2022-03-08T23:14:38.000Z,385650,group_1,431844,Memory1/Open4,1,2022-03-08T22:28:25.000Z,,,,not measured,,True
7,AP_Screen,2,imported_AP_headphone test,1,3,,,,,,,3,,,,,,,,,,,,one,,,,,,,,,,,,,,,1.0,,,,0.0,,,,,,,,,,,,,,,,,,,,,,,,,,,,,,,,S_O_I,,yes,,,2022-03-08T23:14:38.000Z,385650,group_1,431844,Memory1/Open4,1,2022-03-08T22:28:25.000Z,,,,not measured,,True
7,AP_Screen,2,imported_AP_headphone test,2,2,,,,,,,2,,,,,,,,,,,,two,,,,,,,,,,,,,,,1.0,,,,0.0,,,,,,,,,,,,,,,,,,,,,,,,,,,,,,,,I_S_O,,yes,,,2022-03-08T23:14:38.000Z,385650,group_1,431844,Memory1/Open4,1,2022-03-08T22:28:25.000Z,,,,not measured,,True
7,AP_Screen,2,imported_AP_headphone test,3,4,,,,,,,4,,,,,,,,,,,,one,,,,,,,,,,,,,,,1.0,,,,0.0,,,,,,,,,,,,,,,,,,,,,,,,,,,,,,,,S_I_O,,yes,,,2022-03-08T23:14:38.000Z,385650,group_1,431844,Memory1/Open4,1,2022-03-08T22:28:25.000Z,,,,not measured,,True
7,AP_Screen,2,imported_AP_headphone test,4,6,,,,,,,6,,,,,,,,,,,,three,,,,,,,,,,,,,,,1.0,,,,0.0,,,,,,,,,,,,,,,,,,,,,,,,,,,,,,,,O_I_S,,yes,,,2022-03-08T23:14:38.000Z,385650,group_1,431844,Memory1/Open4,1,2022-03-08T22:28:25.000Z,,,,not measured,,True
7,AP_Screen,2,imported_AP_headphone test,5,1,,,,,,,1,,,,,,,,,,,,three,,,,,,,,,,,,,,,1.0,,,,0.0,,,,,,,,,,,,,,,,,,,,,,,,,,,,,,,,I_O_S,,yes,,,2022-03-08T23:14:38.000Z,385650,group_1,431844,Memory1/Open4,1,2022-03-08T22:28:25.000Z,,,,not measured,,True
7,AP_Screen,2,imported_AP_headphone test,6,5,,,,,,,5,,,,,,,,,,,,two,,,,,,,,,,,,,,,1.0,,,,0.0,,,,,,,,,,,,,,,,,,,,,,,,,,,,,,,,O_S_I,,yes,,,2022-03-08T23:14:38.000Z,385650,group_1,431844,Memory1/Open4,1,2022-03-08T22:28:25.000Z,,,,not measured,,True
7,AP_Screen,1,imported_AP_instruction,1,1,,,,,,,1,,,,,,,,,,,,,,,,,,,,,,,,,,,,,,,,,,,,,,,,,,,,,,,,,,,,,,,,,,,,,,,,,yes,,,2022-03-08T23:14:38.000Z,385650,group_1,431844,Memory1/Open4,1,2022-03-08T22:28:25.000Z,,,,not measured,,True
6,HP_Screen,3,imported_HP Evaluation,1,1,,,,,,,1,,,,,,,,,,,,,,0.0,,,,,,,,,,,,,,,,,,,,,,,,,,,,,,,,,,,,,,,,,,,,,,,,,,,yes,,,2022-03-08T23:14:38.000Z,385650,group_1,431844,Memory1/Open4,1,2022-03-08T22:28:25.000Z,,,,not measured,,True
6,HP_Screen,2,imported_HP Trials,1,4,,,,,,,1,,,,,,,,,,,,,,0.0,,,"""times=;;;;;;;;;;;;;;;;;---values=;;;;;;;;;;;;;;;;;""",hp2.3.flac,,,,,,,,,,,,,,,,,,,,,,,choice 3,,,,,,,,,,,,,,,,,,,hp2.3.flac,,,,,yes,,,2022-03-08T23:14:38.000Z,385650,group_1,431844,Memory1/Open4,1,2022-03-08T22:28:25.000Z,,,,not measured,,True
6,HP_Screen,2,imported_HP Trials,2,3,,,,,,,1,,,,,,,,,,,,,,0.0,,,"""times=;;;;;;;;;;;;;;;;;---values=;;;;;;;;;;;;;;;;;""",hp5.1.flac,,,,,,,,,,,,,,,,,,,,,,,choice 1,,,,,,,,,,,,,,,,,,,hp5.1.flac,,,,,yes,,,2022-03-08T23:14:38.000Z,385650,group_1,431844,Memory1/Open4,1,2022-03-08T22:28:25.000Z,,,,not measured,,True
6,HP_Screen,2,imported_HP Trials,3,6,,,,,,,1,,,,,,,,,,,,,,0.0,,,"""times=;;;;;;;;;;;;;;;;;---values=;;;;;;;;;;;;;;;;;""",hp1.1.flac,,,,,,,,,,,,,,,,,,,,,,,choice 1,,,,,,,,,,,,,,,,,,,hp1.1.flac,,,,,yes,,,2022-03-08T23:14:38.000Z,385650,group_1,431844,Memory1/Open4,1,2022-03-08T22:28:25.000Z,,,,not measured,,True
6,HP_Screen,2,imported_HP Trials,4,2,,,,,,,1,,,,,,,,,,,,,,0.0,,,"""times=;;;;;;;;;;;;;;;;;---values=;;;;;;;;;;;;;;;;;""",hp2.1.flac,,,,,,,,,,,,,,,,,,,,,,,choice 1,,,,,,,,,,,,,,,,,,,hp2.1.flac,,,,,yes,,,2022-03-08T23:14:38.000Z,385650,group_1,431844,Memory1/Open4,1,2022-03-08T22:28:25.000Z,,,,not measured,,True
6,HP_Screen,2,imported_HP Trials,5,1,,,,,,,1,,,,,,,,,,,,,,0.0,,,"""times=;;;;;;;;;;;;;;;;;---values=;;;;;;;;;;;;;;;;;""",hp2.2.flac,,,,,,,,,,,,,,,,,,,,,,,choice 2,,,,,,,,,,,,,,,,,,,hp2.2.flac,,,,,yes,,,2022-03-08T23:14:38.000Z,385650,group_1,431844,Memory1/Open4,1,2022-03-08T22:28:25.000Z,,,,not measured,,True
6,HP_Screen,2,imported_HP Trials,6,5,,,,,,,1,,,,,,,,,,,,,,0.0,,,"""times=;;;;;;;;;;;;;;;;;---values=;;;;;;;;;;;;;;;;;""",hp3.3.flac,,,,,,,,,,,,,,,,,,,,,,,choice 3,,,,,,,,,,,,,,,,,,,hp3.3.flac,,,,,yes,,,2022-03-08T23:14:38.000Z,385650,group_1,431844,Memory1/Open4,1,2022-03-08T22:28:25.000Z,,,,not measured,,True
6,HP_Screen,1,imported_HP Instructions,1,1,,,,,,,1,,,,,,,,,,,,,,,3.0,,,,,,,,,,,,,,,,,,,,,,,,,,,,,,,,,,,,,,,,,,,,,,,,,,yes,,,2022-03-08T23:14:38.000Z,385650,group_1,431844,Memory1/Open4,1,2022-03-08T22:28:25.000Z,,,,not measured,,True
4,GenInstructMemOpen,1,InstructionsMemOpen,1,1,,,,,,,1,,,,,,,,,,,,,,,,,,,,,,,,,,,,,,,,,,,,,,,,,,,,,,,,,,,,,,,,,,,,,,,,,yes,,,2022-03-08T23:14:38.000Z,385650,group_1,431844,Memory1/Open4,1,2022-03-08T22:28:25.000Z,,,,not measured,,True
2,Consent,1,Consent,1,1,,,,,,,1,,,,,,,,,,,,,,,,,,,,,,,,,,,,,,,,,,,,,,,,,,,,,,,,,,,,,,,,,,,,,,,,,yes,,,2022-03-08T23:14:38.000Z,385650,group_1,431844,Memory1/Open4,1,2022-03-08T22:28:25.000Z,,,,not measured,,True
