Block_Nr,Block_Name,Task_Nr,Task_Name,Trial_Nr,Trial_Id,ab_pitch,age_range,answer,best_instru,choice,clip,Condition_Id,conditions,consent,correct_incorrect_m_2,correct_incorrect_m_3,correct_incorrect_mem_1,correct_incorrect_p_1,correct_incorrect_p_2,correct_incorrect_p_3,correct_incorrect_practice_m,correct_incorrect_practice_p,correctCount,decision,earworm,errorCount,exampleCount,familiarity,fileArray,filePick,Frequenc,genre,genre_3,genre_4,hour,imagery,imagery_2,Instr,isCorrect,listen_time,music_theory,name_instru,nrErrors,num_instru,participant_choice,participant_choice_2,participant_choice2,participant_spacePress,participant_spacePress2,played_notplayed,practice_catseg_scramble,relative_pitch,response,response_seg,response_seg2,response_Time2,responseTime,retestCount,scramble_cat_1,scramble_cat_3,scramble_cat_4,scramble_catseg_4,scramble_level,scramble_m_1,scramble_m_2,scramble_m_3,scramble_open_3,scramble_p_1,scramble_p_2,scramble_p_3,set1response,soundName,strategy,time_atClipStart1,toneSequence,always_fullscreen,completed,crowdsourcing_code,crowdsourcing_subj_id,end_time,exp_subject_id,group_name,rec_session_id,session_name,session_nr,start_time,subj_counter_global,subj_counter_per_group,subject_code,time_delay_offset,time_measure_std,unlocked
13,Post-Survey,1,Post-Survey,1,1,,,,,,,1,,,,,,,,,,,,,,,,3.0,,,,,,,,,,,,,,,,,,,,,,option_0,,,,,,,,,,,,,,,,,,,,,,,When the clips started I counted the seconds until when I though the tone of the music changed (if at all).,,,,yes,,,2022-03-14T16:20:03.000Z,388196,group_11,435113,Prediction2/Cat.3,1,2022-03-14T15:34:16.000Z,,,,not measured,,True
11,CategorizationSeg_3,4,CategorizationSeg_3,1,13,,,,,,,4,,,,,,,,,,,,,,,,,,,,,,,,,,,,,,,,,Every 2 seconds (every 1 measure),Every 2 seconds (every 1 measure),,,,,,,,Correct,Correct,1430.0,2371.0,,,1B,,,,,,,,,,,,,,,,,yes,,,2022-03-14T16:20:03.000Z,388196,group_11,435113,Prediction2/Cat.3,1,2022-03-14T15:34:16.000Z,,,,not measured,,True
11,CategorizationSeg_3,4,CategorizationSeg_3,2,11,,,,,,,3,,,,,,,,,,,,,,,,,,,,,,,,,,,,,,,,,Every 16 seconds (every 8 measures),Every 16 seconds (every 8 measures),,,,,,,,Incorrect,Incorrect,1107.0,3690.0,,,2B,,,,,,,,,,,,,,,,,yes,,,2022-03-14T16:20:03.000Z,388196,group_11,435113,Prediction2/Cat.3,1,2022-03-14T15:34:16.000Z,,,,not measured,,True
11,CategorizationSeg_3,4,CategorizationSeg_3,3,12,,,,,,,3,,,,,,,,,,,,,,,,,,,,,,,,,,,,,,,,,Every 4 seconds (every 2 measures),Every 4 seconds (every 2 measures),,,,,,,,Correct,Correct,1247.0,2498.0,,,2B,,,,,,,,,,,,,,,,,yes,,,2022-03-14T16:20:03.000Z,388196,group_11,435113,Prediction2/Cat.3,1,2022-03-14T15:34:16.000Z,,,,not measured,,True
11,CategorizationSeg_3,4,CategorizationSeg_3,4,16,,,,,,,4,,,,,,,,,,,,,,,,,,,,,,,,,,,,,,,,,Every 2 seconds (every 1 measure),Every 2 seconds (every 1 measure),,,,,,,,Correct,Correct,2224.0,1666.0,,,1B,,,,,,,,,,,,,,,,,yes,,,2022-03-14T16:20:03.000Z,388196,group_11,435113,Prediction2/Cat.3,1,2022-03-14T15:34:16.000Z,,,,not measured,,True
11,CategorizationSeg_3,4,CategorizationSeg_3,5,4,,,,,,,1,,,,,,,,,,,,,,,,,,,,,,,,,,,,,,,,,Never,Never,,,,,,,,Correct,Correct,1360.0,1965.0,,,intact,,,,,,,,,,,,,,,,,yes,,,2022-03-14T16:20:03.000Z,388196,group_11,435113,Prediction2/Cat.3,1,2022-03-14T15:34:16.000Z,,,,not measured,,True
11,CategorizationSeg_3,4,CategorizationSeg_3,6,5,,,,,,,2,,,,,,,,,,,,,,,,,,,,,,,,,,,,,,,,,Every 16 seconds (every 8 measures),Every 16 seconds (every 8 measures),,,,,,,,Correct,Correct,2169.0,2183.0,,,8B,,,,,,,,,,,,,,,,,yes,,,2022-03-14T16:20:03.000Z,388196,group_11,435113,Prediction2/Cat.3,1,2022-03-14T15:34:16.000Z,,,,not measured,,True
11,CategorizationSeg_3,4,CategorizationSeg_3,7,3,,,,,,,1,,,,,,,,,,,,,,,,,,,,,,,,,,,,,,,,,Never,Never,,,,,,,,Correct,Correct,1214.0,1416.0,,,intact,,,,,,,,,,,,,,,,,yes,,,2022-03-14T16:20:03.000Z,388196,group_11,435113,Prediction2/Cat.3,1,2022-03-14T15:34:16.000Z,,,,not measured,,True
11,CategorizationSeg_3,4,CategorizationSeg_3,8,6,,,,,,,2,,,,,,,,,,,,,,,,,,,,,,,,,,,,,,,,,Every 16 seconds (every 8 measures),Never,,,,,,,,Correct,Incorrect,1158.0,2773.0,,,8B,,,,,,,,,,,,,,,,,yes,,,2022-03-14T16:20:03.000Z,388196,group_11,435113,Prediction2/Cat.3,1,2022-03-14T15:34:16.000Z,,,,not measured,,True
11,CategorizationSeg_3,3,Ready?,1,1,,,,,,,1,,,,,,,,,,,,,,,,,,,,,,,,,,,,,,,,,,,,,,,,,,,,,,,,,,,,,,,,,,,,,,,,,yes,,,2022-03-14T16:20:03.000Z,388196,group_11,435113,Prediction2/Cat.3,1,2022-03-14T15:34:16.000Z,,,,not measured,,True
11,CategorizationSeg_3,2,Practice_Categorization,1,3,,,,,,,3,,,,,,,,,,,,,,,,,,,,,,,,,,,,,,,,,Every 4 seconds (every 2 measures),Every 16 seconds (every 8 measures),,,,,2B,,,Incorrect,Incorrect,3960.0,10535.0,,,,,,,,,,,,,,,,,,,,yes,,,2022-03-14T16:20:03.000Z,388196,group_11,435113,Prediction2/Cat.3,1,2022-03-14T15:34:16.000Z,,,,not measured,,True
11,CategorizationSeg_3,1,Instructions for Categorization Seg.,1,1,,,,,,,1,,,,,,,,,,,,,,,,,,,,,,,,,,,,,,,,,,,,,,,,,,,,,,,,,,,,,,,,,,,,,,,,,yes,,,2022-03-14T16:20:03.000Z,388196,group_11,435113,Prediction2/Cat.3,1,2022-03-14T15:34:16.000Z,,,,not measured,,True
9,Prediction 2,4,Prediction_2,1,34,,,,,Second,2_2B_prediction_7.mp3,4,,,,,,,incorrect_left,,,,,,,,,,,,,,,,,,,,,,,,,,,,,,,,,,Correct,,,,1384.0,,,,,,,,,,,,2B,,,,,,,,yes,,,2022-03-14T16:20:03.000Z,388196,group_11,435113,Prediction2/Cat.3,1,2022-03-14T15:34:16.000Z,,,,not measured,,True
9,Prediction 2,4,Prediction_2,2,42,,,,,First,2_1B_prediction_5.mp3,5,,,,,,,correct_left,,,,,,,,,,,,,,,,,,,,,,,,,,,,,,,,,,Correct,,,,1775.0,,,,,,,,,,,,1B,,,,,,,,yes,,,2022-03-14T16:20:03.000Z,388196,group_11,435113,Prediction2/Cat.3,1,2022-03-14T15:34:16.000Z,,,,not measured,,True
9,Prediction 2,4,Prediction_2,3,35,,,,,First,2_2B_prediction_8.mp3,4,,,,,,,incorrect_left,,,,,,,,,,,,,,,,,,,,,,,,,,,,,,,,,,Incorrect,,,,2412.0,,,,,,,,,,,,2B,,,,,,,,yes,,,2022-03-14T16:20:03.000Z,388196,group_11,435113,Prediction2/Cat.3,1,2022-03-14T15:34:16.000Z,,,,not measured,,True
9,Prediction 2,4,Prediction_2,4,15,,,,,Second,2_8B_prediction_8.mp3,2,,,,,,,incorrect_left,,,,,,,,,,,,,,,,,,,,,,,,,,,,,,,,,,Correct,,,,1492.0,,,,,,,,,,,,8B,,,,,,,,yes,,,2022-03-14T16:20:03.000Z,388196,group_11,435113,Prediction2/Cat.3,1,2022-03-14T15:34:16.000Z,,,,not measured,,True
9,Prediction 2,4,Prediction_2,5,48,,,,,Second,4_1B_prediction_3.mp3,5,,,,,,,correct_left,,,,,,,,,,,,,,,,,,,,,,,,,,,,,,,,,,Incorrect,,,,2918.0,,,,,,,,,,,,1B,,,,,,,,yes,,,2022-03-14T16:20:03.000Z,388196,group_11,435113,Prediction2/Cat.3,1,2022-03-14T15:34:16.000Z,,,,not measured,,True
9,Prediction 2,4,Prediction_2,6,20,,,,,First,4_8B_prediction_8.mp3,2,,,,,,,incorrect_left,,,,,,,,,,,,,,,,,,,,,,,,,,,,,,,,,,Incorrect,,,,2535.0,,,,,,,,,,,,8B,,,,,,,,yes,,,2022-03-14T16:20:03.000Z,388196,group_11,435113,Prediction2/Cat.3,1,2022-03-14T15:34:16.000Z,,,,not measured,,True
9,Prediction 2,4,Prediction_2,7,3,,,,,,2_8B_prediction_6.mp3,1,,,,,,,correct_left,,,,,,,,,,,,,,,,,,,,,,,,,,,,,,,,,,,,,,,,,,,,,,,,,,8B,,,,,,,,yes,,,2022-03-14T16:20:03.000Z,388196,group_11,435113,Prediction2/Cat.3,1,2022-03-14T15:34:16.000Z,,,,not measured,,True
9,Prediction 2,4,Prediction_2,8,41,,,,,Second,2_1B_prediction_4.mp3,5,,,,,,,correct_left,,,,,,,,,,,,,,,,,,,,,,,,,,,,,,,,,,Incorrect,,,,794.0,,,,,,,,,,,,1B,,,,,,,,yes,,,2022-03-14T16:20:03.000Z,388196,group_11,435113,Prediction2/Cat.3,1,2022-03-14T15:34:16.000Z,,,,not measured,,True
9,Prediction 2,4,Prediction_2,9,6,,,,,Second,4_8B_prediction_1.mp3,1,,,,,,,correct_left,,,,,,,,,,,,,,,,,,,,,,,,,,,,,,,,,,Incorrect,,,,1491.0,,,,,,,,,,,,8B,,,,,,,,yes,,,2022-03-14T16:20:03.000Z,388196,group_11,435113,Prediction2/Cat.3,1,2022-03-14T15:34:16.000Z,,,,not measured,,True
9,Prediction 2,4,Prediction_2,10,50,,,,,Second,4_1B_prediction_5.mp3,5,,,,,,,correct_left,,,,,,,,,,,,,,,,,,,,,,,,,,,,,,,,,,Incorrect,,,,1823.0,,,,,,,,,,,,1B,,,,,,,,yes,,,2022-03-14T16:20:03.000Z,388196,group_11,435113,Prediction2/Cat.3,1,2022-03-14T15:34:16.000Z,,,,not measured,,True
9,Prediction 2,4,Prediction_2,11,53,,,,,First,2_1B_prediction_6.mp3,6,,,,,,,incorrect_left,,,,,,,,,,,,,,,,,,,,,,,,,,,,,,,,,,Incorrect,,,,1093.0,,,,,,,,,,,,1B,,,,,,,,yes,,,2022-03-14T16:20:03.000Z,388196,group_11,435113,Prediction2/Cat.3,1,2022-03-14T15:34:16.000Z,,,,not measured,,True
9,Prediction 2,4,Prediction_2,12,2,,,,,First,2_8B_prediction_5.mp3,1,,,,,,,correct_left,,,,,,,,,,,,,,,,,,,,,,,,,,,,,,,,,,Correct,,,,933.0,,,,,,,,,,,,8B,,,,,,,,yes,,,2022-03-14T16:20:03.000Z,388196,group_11,435113,Prediction2/Cat.3,1,2022-03-14T15:34:16.000Z,,,,not measured,,True
9,Prediction 2,4,Prediction_2,13,8,,,,,Second,4_8B_prediction_3.mp3,1,,,,,,,correct_left,,,,,,,,,,,,,,,,,,,,,,,,,,,,,,,,,,Incorrect,,,,1109.0,,,,,,,,,,,,8B,,,,,,,,yes,,,2022-03-14T16:20:03.000Z,388196,group_11,435113,Prediction2/Cat.3,1,2022-03-14T15:34:16.000Z,,,,not measured,,True
9,Prediction 2,4,Prediction_2,14,19,,,,,First,4_8B_prediction_4.mp3,2,,,,,,,incorrect_left,,,,,,,,,,,,,,,,,,,,,,,,,,,,,,,,,,Incorrect,,,,654.0,,,,,,,,,,,,8B,,,,,,,,yes,,,2022-03-14T16:20:03.000Z,388196,group_11,435113,Prediction2/Cat.3,1,2022-03-14T15:34:16.000Z,,,,not measured,,True
9,Prediction 2,4,Prediction_2,15,22,,,,,First,2_2B_prediction_5.mp3,3,,,,,,,correct_left,,,,,,,,,,,,,,,,,,,,,,,,,,,,,,,,,,Correct,,,,1159.0,,,,,,,,,,,,2B,,,,,,,,yes,,,2022-03-14T16:20:03.000Z,388196,group_11,435113,Prediction2/Cat.3,1,2022-03-14T15:34:16.000Z,,,,not measured,,True
9,Prediction 2,4,Prediction_2,16,1,,,,,First,2_8B_prediction_4.mp3,1,,,,,,,correct_left,,,,,,,,,,,,,,,,,,,,,,,,,,,,,,,,,,Correct,,,,606.0,,,,,,,,,,,,8B,,,,,,,,yes,,,2022-03-14T16:20:03.000Z,388196,group_11,435113,Prediction2/Cat.3,1,2022-03-14T15:34:16.000Z,,,,not measured,,True
9,Prediction 2,4,Prediction_2,17,39,,,,,First,4_2B_prediction_4.mp3,4,,,,,,,incorrect_left,,,,,,,,,,,,,,,,,,,,,,,,,,,,,,,,,,Incorrect,,,,753.0,,,,,,,,,,,,2B,,,,,,,,yes,,,2022-03-14T16:20:03.000Z,388196,group_11,435113,Prediction2/Cat.3,1,2022-03-14T15:34:16.000Z,,,,not measured,,True
9,Prediction 2,4,Prediction_2,18,55,,,,,First,2_1B_prediction_8.mp3,6,,,,,,,incorrect_left,,,,,,,,,,,,,,,,,,,,,,,,,,,,,,,,,,Incorrect,,,,718.0,,,,,,,,,,,,1B,,,,,,,,yes,,,2022-03-14T16:20:03.000Z,388196,group_11,435113,Prediction2/Cat.3,1,2022-03-14T15:34:16.000Z,,,,not measured,,True
9,Prediction 2,4,Prediction_2,19,54,,,,,First,2_1B_prediction_7.mp3,6,,,,,,,incorrect_left,,,,,,,,,,,,,,,,,,,,,,,,,,,,,,,,,,Incorrect,,,,990.0,,,,,,,,,,,,1B,,,,,,,,yes,,,2022-03-14T16:20:03.000Z,388196,group_11,435113,Prediction2/Cat.3,1,2022-03-14T15:34:16.000Z,,,,not measured,,True
9,Prediction 2,4,Prediction_2,20,56,,,,,Second,4_1B_prediction_1.mp3,6,,,,,,,incorrect_left,,,,,,,,,,,,,,,,,,,,,,,,,,,,,,,,,,Correct,,,,762.0,,,,,,,,,,,,1B,,,,,,,,yes,,,2022-03-14T16:20:03.000Z,388196,group_11,435113,Prediction2/Cat.3,1,2022-03-14T15:34:16.000Z,,,,not measured,,True
9,Prediction 2,4,Prediction_2,21,17,,,,,First,4_8B_prediction_2.mp3,2,,,,,,,incorrect_left,,,,,,,,,,,,,,,,,,,,,,,,,,,,,,,,,,Incorrect,,,,681.0,,,,,,,,,,,,8B,,,,,,,,yes,,,2022-03-14T16:20:03.000Z,388196,group_11,435113,Prediction2/Cat.3,1,2022-03-14T15:34:16.000Z,,,,not measured,,True
9,Prediction 2,4,Prediction_2,22,47,,,,,First,4_1B_prediction_2.mp3,5,,,,,,,correct_left,,,,,,,,,,,,,,,,,,,,,,,,,,,,,,,,,,Correct,,,,699.0,,,,,,,,,,,,1B,,,,,,,,yes,,,2022-03-14T16:20:03.000Z,388196,group_11,435113,Prediction2/Cat.3,1,2022-03-14T15:34:16.000Z,,,,not measured,,True
9,Prediction 2,4,Prediction_2,23,36,,,,,Second,4_2B_prediction_1.mp3,4,,,,,,,incorrect_left,,,,,,,,,,,,,,,,,,,,,,,,,,,,,,,,,,Correct,,,,1492.0,,,,,,,,,,,,2B,,,,,,,,yes,,,2022-03-14T16:20:03.000Z,388196,group_11,435113,Prediction2/Cat.3,1,2022-03-14T15:34:16.000Z,,,,not measured,,True
9,Prediction 2,4,Prediction_2,24,59,,,,,First,4_1B_prediction_4.mp3,6,,,,,,,incorrect_left,,,,,,,,,,,,,,,,,,,,,,,,,,,,,,,,,,Incorrect,,,,1206.0,,,,,,,,,,,,1B,,,,,,,,yes,,,2022-03-14T16:20:03.000Z,388196,group_11,435113,Prediction2/Cat.3,1,2022-03-14T15:34:16.000Z,,,,not measured,,True
9,Prediction 2,4,Prediction_2,25,21,,,,,First,2_2B_prediction_4.mp3,3,,,,,,,correct_left,,,,,,,,,,,,,,,,,,,,,,,,,,,,,,,,,,Correct,,,,690.0,,,,,,,,,,,,2B,,,,,,,,yes,,,2022-03-14T16:20:03.000Z,388196,group_11,435113,Prediction2/Cat.3,1,2022-03-14T15:34:16.000Z,,,,not measured,,True
9,Prediction 2,4,Prediction_2,26,38,,,,,First,4_2B_prediction_3.mp3,4,,,,,,,incorrect_left,,,,,,,,,,,,,,,,,,,,,,,,,,,,,,,,,,Incorrect,,,,930.0,,,,,,,,,,,,2B,,,,,,,,yes,,,2022-03-14T16:20:03.000Z,388196,group_11,435113,Prediction2/Cat.3,1,2022-03-14T15:34:16.000Z,,,,not measured,,True
9,Prediction 2,4,Prediction_2,27,30,,,,,Second,4_2B_prediction_5.mp3,3,,,,,,,correct_left,,,,,,,,,,,,,,,,,,,,,,,,,,,,,,,,,,Incorrect,,,,1146.0,,,,,,,,,,,,2B,,,,,,,,yes,,,2022-03-14T16:20:03.000Z,388196,group_11,435113,Prediction2/Cat.3,1,2022-03-14T15:34:16.000Z,,,,not measured,,True
9,Prediction 2,4,Prediction_2,28,33,,,,,First,2_2B_prediction_6.mp3,4,,,,,,,incorrect_left,,,,,,,,,,,,,,,,,,,,,,,,,,,,,,,,,,Incorrect,,,,1650.0,,,,,,,,,,,,2B,,,,,,,,yes,,,2022-03-14T16:20:03.000Z,388196,group_11,435113,Prediction2/Cat.3,1,2022-03-14T15:34:16.000Z,,,,not measured,,True
9,Prediction 2,4,Prediction_2,29,4,,,,,First,2_8B_prediction_7.mp3,1,,,,,,,correct_left,,,,,,,,,,,,,,,,,,,,,,,,,,,,,,,,,,Correct,,,,783.0,,,,,,,,,,,,8B,,,,,,,,yes,,,2022-03-14T16:20:03.000Z,388196,group_11,435113,Prediction2/Cat.3,1,2022-03-14T15:34:16.000Z,,,,not measured,,True
9,Prediction 2,4,Prediction_2,30,27,,,,,First,4_2B_prediction_2.mp3,3,,,,,,,correct_left,,,,,,,,,,,,,,,,,,,,,,,,,,,,,,,,,,Correct,,,,967.0,,,,,,,,,,,,2B,,,,,,,,yes,,,2022-03-14T16:20:03.000Z,388196,group_11,435113,Prediction2/Cat.3,1,2022-03-14T15:34:16.000Z,,,,not measured,,True
9,Prediction 2,3,Ready?,1,1,,,,,,,1,,,,,,,,,,,,,,,,,,,,,,,,,,,,,,,,,,,,,,,,,,,,,,,,,,,,,,,,,,,,,,,,,yes,,,2022-03-14T16:20:03.000Z,388196,group_11,435113,Prediction2/Cat.3,1,2022-03-14T15:34:16.000Z,,,,not measured,,True
9,Prediction 2,2,Practice_Prediction,1,5,,,,,Second,,2,,,,,,,,,,incorrect_correct,,,,,,,,,,,,,,,,,,,,,,,,,,,,,,,Correct,,,,3496.0,,,,,,,,,,,,,,,,,,,,yes,,,2022-03-14T16:20:03.000Z,388196,group_11,435113,Prediction2/Cat.3,1,2022-03-14T15:34:16.000Z,,,,not measured,,True
9,Prediction 2,2,Practice_Prediction,2,3,,,,,First,,1,,,,,,,,,,correct_incorrect,,,,,,,,,,,,,,,,,,,,,,,,,,,,,,,Correct,,,,1697.0,,,,,,,,,,,,,,,,,,,,yes,,,2022-03-14T16:20:03.000Z,388196,group_11,435113,Prediction2/Cat.3,1,2022-03-14T15:34:16.000Z,,,,not measured,,True
9,Prediction 2,2,Practice_Prediction,3,1,,,,,Second,,1,,,,,,,,,,correct_incorrect,,,,,,,,,,,,,,,,,,,,,,,,,,,,,,,Incorrect,,,,1123.0,,,,,,,,,,,,,,,,,,,,yes,,,2022-03-14T16:20:03.000Z,388196,group_11,435113,Prediction2/Cat.3,1,2022-03-14T15:34:16.000Z,,,,not measured,,True
9,Prediction 2,1,Instructions_Prediction,1,1,,,,,,,1,,,,,,,,,,,,,,,,,,,,,,,,,,,,,,,,,,,,,,,,,,,,,,,,,,,,,,,,,,,,,,,,,yes,,,2022-03-14T16:20:03.000Z,388196,group_11,435113,Prediction2/Cat.3,1,2022-03-14T15:34:16.000Z,,,,not measured,,True
7,AP_Screen,3,imported_AP_eval,1,1,,,,,,,1,,,,,,,,,,,,,,,,,,,,,,,,,,,,,,,0.0,,,,,,,,,,,,,,,,,,,,,,,,,,,,,,,,,,yes,,,2022-03-14T16:20:03.000Z,388196,group_11,435113,Prediction2/Cat.3,1,2022-03-14T15:34:16.000Z,,,,not measured,,True
7,AP_Screen,2,imported_AP_headphone test,1,1,,,,,,,1,,,,,,,,,,,,three,,,,,,,,,,,,,,,1.0,,,,0.0,,,,,,,,,,,,,,,,,,,,,,,,,,,,,,,,I_O_S,,yes,,,2022-03-14T16:20:03.000Z,388196,group_11,435113,Prediction2/Cat.3,1,2022-03-14T15:34:16.000Z,,,,not measured,,True
7,AP_Screen,2,imported_AP_headphone test,2,3,,,,,,,3,,,,,,,,,,,,one,,,,,,,,,,,,,,,1.0,,,,0.0,,,,,,,,,,,,,,,,,,,,,,,,,,,,,,,,S_O_I,,yes,,,2022-03-14T16:20:03.000Z,388196,group_11,435113,Prediction2/Cat.3,1,2022-03-14T15:34:16.000Z,,,,not measured,,True
7,AP_Screen,2,imported_AP_headphone test,3,5,,,,,,,5,,,,,,,,,,,,two,,,,,,,,,,,,,,,1.0,,,,0.0,,,,,,,,,,,,,,,,,,,,,,,,,,,,,,,,O_S_I,,yes,,,2022-03-14T16:20:03.000Z,388196,group_11,435113,Prediction2/Cat.3,1,2022-03-14T15:34:16.000Z,,,,not measured,,True
7,AP_Screen,2,imported_AP_headphone test,4,4,,,,,,,4,,,,,,,,,,,,one,,,,,,,,,,,,,,,1.0,,,,0.0,,,,,,,,,,,,,,,,,,,,,,,,,,,,,,,,S_I_O,,yes,,,2022-03-14T16:20:03.000Z,388196,group_11,435113,Prediction2/Cat.3,1,2022-03-14T15:34:16.000Z,,,,not measured,,True
7,AP_Screen,2,imported_AP_headphone test,5,6,,,,,,,6,,,,,,,,,,,,three,,,,,,,,,,,,,,,1.0,,,,0.0,,,,,,,,,,,,,,,,,,,,,,,,,,,,,,,,O_I_S,,yes,,,2022-03-14T16:20:03.000Z,388196,group_11,435113,Prediction2/Cat.3,1,2022-03-14T15:34:16.000Z,,,,not measured,,True
7,AP_Screen,2,imported_AP_headphone test,6,2,,,,,,,2,,,,,,,,,,,,two,,,,,,,,,,,,,,,1.0,,,,0.0,,,,,,,,,,,,,,,,,,,,,,,,,,,,,,,,I_S_O,,yes,,,2022-03-14T16:20:03.000Z,388196,group_11,435113,Prediction2/Cat.3,1,2022-03-14T15:34:16.000Z,,,,not measured,,True
7,AP_Screen,1,imported_AP_instruction,1,1,,,,,,,1,,,,,,,,,,,,,,,,,,,,,,,,,,,,,,,,,,,,,,,,,,,,,,,,,,,,,,,,,,,,,,,,,yes,,,2022-03-14T16:20:03.000Z,388196,group_11,435113,Prediction2/Cat.3,1,2022-03-14T15:34:16.000Z,,,,not measured,,True
6,HP_Screen,3,imported_HP Evaluation,1,1,,,,,,,1,,,,,,,,,,,,,,0.0,,,,,,,,,,,,,,,,,,,,,,,,,,,,,,,,,,,,,,,,,,,,,,,,,,,yes,,,2022-03-14T16:20:03.000Z,388196,group_11,435113,Prediction2/Cat.3,1,2022-03-14T15:34:16.000Z,,,,not measured,,True
6,HP_Screen,2,imported_HP Trials,1,4,,,,,,,1,,,,,,,,,,,,,,0.0,,,"""times=;;;;;;;;;;;;;;;;;---values=;;;;;;;;;;;;;;;;;""",hp6.2.flac,,,,,,,,,,,,,,,,,,,,,,,choice 2,,,,,,,,,,,,,,,,,,,hp6.2.flac,,,,,yes,,,2022-03-14T16:20:03.000Z,388196,group_11,435113,Prediction2/Cat.3,1,2022-03-14T15:34:16.000Z,,,,not measured,,True
6,HP_Screen,2,imported_HP Trials,2,2,,,,,,,1,,,,,,,,,,,,,,0.0,,,"""times=;;;;;;;;;;;;;;;;;---values=;;;;;;;;;;;;;;;;;""",hp1.2.flac,,,,,,,,,,,,,,,,,,,,,,,choice 2,,,,,,,,,,,,,,,,,,,hp1.2.flac,,,,,yes,,,2022-03-14T16:20:03.000Z,388196,group_11,435113,Prediction2/Cat.3,1,2022-03-14T15:34:16.000Z,,,,not measured,,True
6,HP_Screen,2,imported_HP Trials,3,1,,,,,,,1,,,,,,,,,,,,,,0.0,,,"""times=;;;;;;;;;;;;;;;;;---values=;;;;;;;;;;;;;;;;;""",hp5.3.flac,,,,,,,,,,,,,,,,,,,,,,,choice 3,,,,,,,,,,,,,,,,,,,hp5.3.flac,,,,,yes,,,2022-03-14T16:20:03.000Z,388196,group_11,435113,Prediction2/Cat.3,1,2022-03-14T15:34:16.000Z,,,,not measured,,True
6,HP_Screen,2,imported_HP Trials,4,5,,,,,,,1,,,,,,,,,,,,,,0.0,,,"""times=;;;;;;;;;;;;;;;;;---values=;;;;;;;;;;;;;;;;;""",hp6.1.flac,,,,,,,,,,,,,,,,,,,,,,,choice 1,,,,,,,,,,,,,,,,,,,hp6.1.flac,,,,,yes,,,2022-03-14T16:20:03.000Z,388196,group_11,435113,Prediction2/Cat.3,1,2022-03-14T15:34:16.000Z,,,,not measured,,True
6,HP_Screen,2,imported_HP Trials,5,6,,,,,,,1,,,,,,,,,,,,,,0.0,,,"""times=;;;;;;;;;;;;;;;;;---values=;;;;;;;;;;;;;;;;;""",hp2.1.flac,,,,,,,,,,,,,,,,,,,,,,,choice 1,,,,,,,,,,,,,,,,,,,hp2.1.flac,,,,,yes,,,2022-03-14T16:20:03.000Z,388196,group_11,435113,Prediction2/Cat.3,1,2022-03-14T15:34:16.000Z,,,,not measured,,True
6,HP_Screen,2,imported_HP Trials,6,3,,,,,,,1,,,,,,,,,,,,,,0.0,,,"""times=;;;;;;;;;;;;;;;;;---values=;;;;;;;;;;;;;;;;;""",hp5.1.flac,,,,,,,,,,,,,,,,,,,,,,,choice 1,,,,,,,,,,,,,,,,,,,hp5.1.flac,,,,,yes,,,2022-03-14T16:20:03.000Z,388196,group_11,435113,Prediction2/Cat.3,1,2022-03-14T15:34:16.000Z,,,,not measured,,True
6,HP_Screen,1,imported_HP Instructions,1,1,,,,,,,1,,,,,,,,,,,,,,,1.0,,,,,,,,,,,,,,,,,,,,,,,,,,,,,,,,,,,,,,,,,,,,,,,,,,yes,,,2022-03-14T16:20:03.000Z,388196,group_11,435113,Prediction2/Cat.3,1,2022-03-14T15:34:16.000Z,,,,not measured,,True
4,GenInstructPredCat,1,InstructionsPredCat,1,1,,,,,,,1,,,,,,,,,,,,,,,,,,,,,,,,,,,,,,,,,,,,,,,,,,,,,,,,,,,,,,,,,,,,,,,,,yes,,,2022-03-14T16:20:03.000Z,388196,group_11,435113,Prediction2/Cat.3,1,2022-03-14T15:34:16.000Z,,,,not measured,,True
2,Consent,1,Consent,1,1,,,,,,,1,,,,,,,,,,,,,,,,,,,,,,,,,,,,,,,,,,,,,,,,,,,,,,,,,,,,,,,,,,,,,,,,,yes,,,2022-03-14T16:20:03.000Z,388196,group_11,435113,Prediction2/Cat.3,1,2022-03-14T15:34:16.000Z,,,,not measured,,True
