Block_Nr,Block_Name,Task_Nr,Task_Name,Trial_Nr,Trial_Id,ab_pitch,age_range,answer,best_instru,choice,clip,Condition_Id,conditions,consent,correct_incorrect_m_2,correct_incorrect_m_3,correct_incorrect_mem_1,correct_incorrect_p_1,correct_incorrect_p_2,correct_incorrect_p_3,correct_incorrect_practice_m,correct_incorrect_practice_p,correctCount,decision,earworm,errorCount,exampleCount,familiarity,fileArray,filePick,Frequenc,genre,genre_3,genre_4,hour,imagery,imagery_2,Instr,isCorrect,listen_time,music_theory,name_instru,nrErrors,num_instru,participant_choice,participant_choice_2,participant_choice2,participant_spacePress,participant_spacePress2,played_notplayed,practice_catseg_scramble,relative_pitch,response,response_seg,response_seg2,response_Time2,responseTime,retestCount,scramble_cat_1,scramble_cat_3,scramble_cat_4,scramble_catseg_4,scramble_level,scramble_m_1,scramble_m_2,scramble_m_3,scramble_open_3,scramble_p_1,scramble_p_2,scramble_p_3,set1response,soundName,strategy,time_atClipStart1,toneSequence,always_fullscreen,completed,crowdsourcing_code,crowdsourcing_subj_id,end_time,exp_subject_id,group_name,rec_session_id,session_name,session_nr,start_time,subj_counter_global,subj_counter_per_group,subject_code,time_delay_offset,time_measure_std,unlocked
13,Post-Survey,1,Post-Survey,1,1,Yes,10-16,,voice,,,1,,,,,,,,,,,,,5.0,,,3.0,,,Weekly,hiphop,R&B,pop,2 hours,,4.0,3 years,,60-90 min,3 years,"ukulele, clarinet, guitar",,3.0,,,,,,option_1,,Yes,,,,,,,,,,,,,,,,,,,,,i tried to remember as much as i can,,,,yes,,,2022-03-16T18:45:19.000Z,389641,group_8,436724,Prediction2/Open3,1,2022-03-16T17:02:15.000Z,,,,not measured,,True
11,OpenEndedSeg_3,4,OpenEndedSeg_3,1,1,,,,,,,1,,,,,,,,,,,,,,,,,,,,,,,,,,,,,,,,,,,,"""times=1647455104150---values=""","""times=1647455104150;1647455179064;1647455181966;1647455201470;1647455224727;1647455226146---values=;8610;11512;31016;54273;55692""",,,,,,,,,,,,,,,,,,intact,,,,,,,,,,yes,,,2022-03-16T18:45:19.000Z,389641,group_8,436724,Prediction2/Open3,1,2022-03-16T17:02:15.000Z,,,,not measured,,True
11,OpenEndedSeg_3,4,OpenEndedSeg_3,2,5,,,,,,,2,,,,,,,,,,,,,,,,,,,,,,,,,,,,,,,,,,,,,"""times=1647455236747;1647455312736;1647455316295;1647455318317;1647455322525;1647455334985---values=;8550;12109;14130;18338;30799""",,,,,,,,,,,,,,,,,,8B,,,,,,,,,,yes,,,2022-03-16T18:45:19.000Z,389641,group_8,436724,Prediction2/Open3,1,2022-03-16T17:02:15.000Z,,,,not measured,,True
11,OpenEndedSeg_3,4,OpenEndedSeg_3,3,15,,,,,,,4,,,,,,,,,,,,,,,,,,,,,,,,,,,,,,,,,,,,,"""times=1647455371543;1647455440693;1647455444604;1647455455723;1647455469154;1647455479568;1647455497328---values=;2024;5935;17054;30485;40899;58659""",,,,,,,,,,,,,,,,,,1B,,,,,,,,,,yes,,,2022-03-16T18:45:19.000Z,389641,group_8,436724,Prediction2/Open3,1,2022-03-16T17:02:15.000Z,,,,not measured,,True
11,OpenEndedSeg_3,4,OpenEndedSeg_3,4,14,,,,,,,4,,,,,,,,,,,,,,,,,,,,,,,,,,,,,,,,,,,,,"""times=1647455505724;1647455580390;1647455582410;1647455586860;1647455599211;1647455610753;1647455619899;1647455620183---values=;7606;9626;14076;26427;37969;47115;47399""",,,,,,,,,,,,,,,,,,1B,,,,,,,,,,yes,,,2022-03-16T18:45:19.000Z,389641,group_8,436724,Prediction2/Open3,1,2022-03-16T17:02:15.000Z,,,,not measured,,True
11,OpenEndedSeg_3,4,OpenEndedSeg_3,5,9,,,,,,,3,,,,,,,,,,,,,,,,,,,,,,,,,,,,,,,,,,,,,"""times=1647455639810;1647455712979;1647455719399;1647455721806;1647455723557;1647455730013;1647455743021;1647455747327;1647455752102---values=;5963;12383;14790;16541;22997;36005;40311;45086""",,,,,,,,,,,,,,,,,,2B,,,,,,,,,,yes,,,2022-03-16T18:45:19.000Z,389641,group_8,436724,Prediction2/Open3,1,2022-03-16T17:02:15.000Z,,,,not measured,,True
11,OpenEndedSeg_3,4,OpenEndedSeg_3,6,3,,,,,,,1,,,,,,,,,,,,,,,,,,,,,,,,,,,,,,,,,,,,,"""times=1647455774116;1647455843423;1647455845579;1647455857551;1647455876494;1647455878307;1647455888623;1647455897995;1647455903355---values=;2992;5148;17120;36063;37876;48192;57564;62924""",,,,,,,,,,,,,,,,,,intact,,,,,,,,,,yes,,,2022-03-16T18:45:19.000Z,389641,group_8,436724,Prediction2/Open3,1,2022-03-16T17:02:15.000Z,,,,not measured,,True
11,OpenEndedSeg_3,4,OpenEndedSeg_3,7,8,,,,,,,2,,,,,,,,,,,,,,,,,,,,,,,,,,,,,,,,,,,,,"""times=1647455906521;1647455975711;1647455977830;1647455990280;1647455994226;1647456003706;1647456010522;1647456025691;1647456026588;1647456037724---values=;1647;3766;16216;20162;29642;36458;51627;52524;63660""",,,,,,,,,,,,,,,,,,8B,,,,,,,,,,yes,,,2022-03-16T18:45:19.000Z,389641,group_8,436724,Prediction2/Open3,1,2022-03-16T17:02:15.000Z,,,,not measured,,True
11,OpenEndedSeg_3,4,OpenEndedSeg_3,8,10,,,,,,,3,,,,,,,,,,,,,,,,,,,,,,,,,,,,,,,,,,,,,"""times=1647456041557;1647456111013;1647456113475;1647456121958;1647456148646;1647456152728;1647456158115;1647456163654---values=;2185;4647;13130;39818;43900;49287;54826""",,,,,,,,,,,,,,,,,,2B,,,,,,,,,,yes,,,2022-03-16T18:45:19.000Z,389641,group_8,436724,Prediction2/Open3,1,2022-03-16T17:02:15.000Z,,,,not measured,,True
11,OpenEndedSeg_3,3,Ready?,1,1,,,,,,,1,,,,,,,,,,,,,,,,,,,,,,,,,,,,,,,,,,,,,,,,,,,,,,,,,,,,,,,,,,,,,,,,,yes,,,2022-03-16T18:45:19.000Z,389641,group_8,436724,Prediction2/Open3,1,2022-03-16T17:02:15.000Z,,,,not measured,,True
11,OpenEndedSeg_3,2,Practice_OpenEnded,1,1,,,,,,,1,,,,,,,,,,,,,,,,,,,,,,,,,,,,,,,,,,,,"""times=1647454960585---values=15822""","""times=1647455029869;1647455041831;1647455044805;1647455074396---values=9659;21621;24595;54186""",,,,,,,,,,,,,,,,,,,,,,,,,,,,yes,,,2022-03-16T18:45:19.000Z,389641,group_8,436724,Prediction2/Open3,1,2022-03-16T17:02:15.000Z,,,,not measured,,True
11,OpenEndedSeg_3,1,Instructions_Open,1,1,,,,,,,1,,,,,,,,,,,,,,,,,,,,,,,,,,,,,,,,,,,,,,,,,,,,,,,,,,,,,,,,,,,,,,,,,yes,,,2022-03-16T18:45:19.000Z,389641,group_8,436724,Prediction2/Open3,1,2022-03-16T17:02:15.000Z,,,,not measured,,True
9,Prediction 2,4,Prediction_2,1,24,,,,,Second,2_2B_prediction_7.mp3,3,,,,,,,correct_left,,,,,,,,,,,,,,,,,,,,,,,,,,,,,,,,,,Incorrect,,,,1140.0,,,,,,,,,,,,2B,,,,,,,,yes,,,2022-03-16T18:45:19.000Z,389641,group_8,436724,Prediction2/Open3,1,2022-03-16T17:02:15.000Z,,,,not measured,,True
9,Prediction 2,4,Prediction_2,2,42,,,,,First,2_1B_prediction_5.mp3,5,,,,,,,correct_left,,,,,,,,,,,,,,,,,,,,,,,,,,,,,,,,,,Correct,,,,790.0,,,,,,,,,,,,1B,,,,,,,,yes,,,2022-03-16T18:45:19.000Z,389641,group_8,436724,Prediction2/Open3,1,2022-03-16T17:02:15.000Z,,,,not measured,,True
9,Prediction 2,4,Prediction_2,3,51,,,,,First,2_1B_prediction_4.mp3,6,,,,,,,incorrect_left,,,,,,,,,,,,,,,,,,,,,,,,,,,,,,,,,,Incorrect,,,,1216.0,,,,,,,,,,,,1B,,,,,,,,yes,,,2022-03-16T18:45:19.000Z,389641,group_8,436724,Prediction2/Open3,1,2022-03-16T17:02:15.000Z,,,,not measured,,True
9,Prediction 2,4,Prediction_2,4,49,,,,,Second,4_1B_prediction_4.mp3,5,,,,,,,correct_left,,,,,,,,,,,,,,,,,,,,,,,,,,,,,,,,,,Incorrect,,,,1056.0,,,,,,,,,,,,1B,,,,,,,,yes,,,2022-03-16T18:45:19.000Z,389641,group_8,436724,Prediction2/Open3,1,2022-03-16T17:02:15.000Z,,,,not measured,,True
9,Prediction 2,4,Prediction_2,5,37,,,,,Second,4_2B_prediction_2.mp3,4,,,,,,,incorrect_left,,,,,,,,,,,,,,,,,,,,,,,,,,,,,,,,,,Correct,,,,1092.0,,,,,,,,,,,,2B,,,,,,,,yes,,,2022-03-16T18:45:19.000Z,389641,group_8,436724,Prediction2/Open3,1,2022-03-16T17:02:15.000Z,,,,not measured,,True
9,Prediction 2,4,Prediction_2,6,31,,,,,Second,2_2B_prediction_4.mp3,4,,,,,,,incorrect_left,,,,,,,,,,,,,,,,,,,,,,,,,,,,,,,,,,Correct,,,,866.0,,,,,,,,,,,,2B,,,,,,,,yes,,,2022-03-16T18:45:19.000Z,389641,group_8,436724,Prediction2/Open3,1,2022-03-16T17:02:15.000Z,,,,not measured,,True
9,Prediction 2,4,Prediction_2,7,11,,,,,Second,2_8B_prediction_4.mp3,2,,,,,,,incorrect_left,,,,,,,,,,,,,,,,,,,,,,,,,,,,,,,,,,Correct,,,,972.0,,,,,,,,,,,,8B,,,,,,,,yes,,,2022-03-16T18:45:19.000Z,389641,group_8,436724,Prediction2/Open3,1,2022-03-16T17:02:15.000Z,,,,not measured,,True
9,Prediction 2,4,Prediction_2,8,14,,,,,Second,2_8B_prediction_7.mp3,2,,,,,,,incorrect_left,,,,,,,,,,,,,,,,,,,,,,,,,,,,,,,,,,Correct,,,,1038.0,,,,,,,,,,,,8B,,,,,,,,yes,,,2022-03-16T18:45:19.000Z,389641,group_8,436724,Prediction2/Open3,1,2022-03-16T17:02:15.000Z,,,,not measured,,True
9,Prediction 2,4,Prediction_2,9,5,,,,,First,2_8B_prediction_8.mp3,1,,,,,,,correct_left,,,,,,,,,,,,,,,,,,,,,,,,,,,,,,,,,,Correct,,,,1014.0,,,,,,,,,,,,8B,,,,,,,,yes,,,2022-03-16T18:45:19.000Z,389641,group_8,436724,Prediction2/Open3,1,2022-03-16T17:02:15.000Z,,,,not measured,,True
9,Prediction 2,4,Prediction_2,10,55,,,,,Second,2_1B_prediction_8.mp3,6,,,,,,,incorrect_left,,,,,,,,,,,,,,,,,,,,,,,,,,,,,,,,,,Correct,,,,1001.0,,,,,,,,,,,,1B,,,,,,,,yes,,,2022-03-16T18:45:19.000Z,389641,group_8,436724,Prediction2/Open3,1,2022-03-16T17:02:15.000Z,,,,not measured,,True
9,Prediction 2,4,Prediction_2,11,18,,,,,First,4_8B_prediction_3.mp3,2,,,,,,,incorrect_left,,,,,,,,,,,,,,,,,,,,,,,,,,,,,,,,,,Incorrect,,,,1657.0,,,,,,,,,,,,8B,,,,,,,,yes,,,2022-03-16T18:45:19.000Z,389641,group_8,436724,Prediction2/Open3,1,2022-03-16T17:02:15.000Z,,,,not measured,,True
9,Prediction 2,4,Prediction_2,12,19,,,,,First,4_8B_prediction_4.mp3,2,,,,,,,incorrect_left,,,,,,,,,,,,,,,,,,,,,,,,,,,,,,,,,,Incorrect,,,,863.0,,,,,,,,,,,,8B,,,,,,,,yes,,,2022-03-16T18:45:19.000Z,389641,group_8,436724,Prediction2/Open3,1,2022-03-16T17:02:15.000Z,,,,not measured,,True
9,Prediction 2,4,Prediction_2,13,16,,,,,First,4_8B_prediction_1.mp3,2,,,,,,,incorrect_left,,,,,,,,,,,,,,,,,,,,,,,,,,,,,,,,,,Incorrect,,,,1276.0,,,,,,,,,,,,8B,,,,,,,,yes,,,2022-03-16T18:45:19.000Z,389641,group_8,436724,Prediction2/Open3,1,2022-03-16T17:02:15.000Z,,,,not measured,,True
9,Prediction 2,4,Prediction_2,14,7,,,,,First,4_8B_prediction_2.mp3,1,,,,,,,correct_left,,,,,,,,,,,,,,,,,,,,,,,,,,,,,,,,,,Correct,,,,1048.0,,,,,,,,,,,,8B,,,,,,,,yes,,,2022-03-16T18:45:19.000Z,389641,group_8,436724,Prediction2/Open3,1,2022-03-16T17:02:15.000Z,,,,not measured,,True
9,Prediction 2,4,Prediction_2,15,58,,,,,Second,4_1B_prediction_3.mp3,6,,,,,,,incorrect_left,,,,,,,,,,,,,,,,,,,,,,,,,,,,,,,,,,Correct,,,,1017.0,,,,,,,,,,,,1B,,,,,,,,yes,,,2022-03-16T18:45:19.000Z,389641,group_8,436724,Prediction2/Open3,1,2022-03-16T17:02:15.000Z,,,,not measured,,True
9,Prediction 2,4,Prediction_2,16,33,,,,,First,2_2B_prediction_6.mp3,4,,,,,,,incorrect_left,,,,,,,,,,,,,,,,,,,,,,,,,,,,,,,,,,Incorrect,,,,1140.0,,,,,,,,,,,,2B,,,,,,,,yes,,,2022-03-16T18:45:19.000Z,389641,group_8,436724,Prediction2/Open3,1,2022-03-16T17:02:15.000Z,,,,not measured,,True
9,Prediction 2,4,Prediction_2,17,50,,,,,First,4_1B_prediction_5.mp3,5,,,,,,,correct_left,,,,,,,,,,,,,,,,,,,,,,,,,,,,,,,,,,Correct,,,,657.0,,,,,,,,,,,,1B,,,,,,,,yes,,,2022-03-16T18:45:19.000Z,389641,group_8,436724,Prediction2/Open3,1,2022-03-16T17:02:15.000Z,,,,not measured,,True
9,Prediction 2,4,Prediction_2,18,30,,,,,Second,4_2B_prediction_5.mp3,3,,,,,,,correct_left,,,,,,,,,,,,,,,,,,,,,,,,,,,,,,,,,,Incorrect,,,,850.0,,,,,,,,,,,,2B,,,,,,,,yes,,,2022-03-16T18:45:19.000Z,389641,group_8,436724,Prediction2/Open3,1,2022-03-16T17:02:15.000Z,,,,not measured,,True
9,Prediction 2,4,Prediction_2,19,10,,,,,Second,4_8B_prediction_8.mp3,1,,,,,,,correct_left,,,,,,,,,,,,,,,,,,,,,,,,,,,,,,,,,,Incorrect,,,,917.0,,,,,,,,,,,,8B,,,,,,,,yes,,,2022-03-16T18:45:19.000Z,389641,group_8,436724,Prediction2/Open3,1,2022-03-16T17:02:15.000Z,,,,not measured,,True
9,Prediction 2,4,Prediction_2,20,46,,,,,First,4_1B_prediction_1.mp3,5,,,,,,,correct_left,,,,,,,,,,,,,,,,,,,,,,,,,,,,,,,,,,Correct,,,,1122.0,,,,,,,,,,,,1B,,,,,,,,yes,,,2022-03-16T18:45:19.000Z,389641,group_8,436724,Prediction2/Open3,1,2022-03-16T17:02:15.000Z,,,,not measured,,True
9,Prediction 2,4,Prediction_2,21,39,,,,,First,4_2B_prediction_4.mp3,4,,,,,,,incorrect_left,,,,,,,,,,,,,,,,,,,,,,,,,,,,,,,,,,Incorrect,,,,844.0,,,,,,,,,,,,2B,,,,,,,,yes,,,2022-03-16T18:45:19.000Z,389641,group_8,436724,Prediction2/Open3,1,2022-03-16T17:02:15.000Z,,,,not measured,,True
9,Prediction 2,4,Prediction_2,22,38,,,,,First,4_2B_prediction_3.mp3,4,,,,,,,incorrect_left,,,,,,,,,,,,,,,,,,,,,,,,,,,,,,,,,,Incorrect,,,,747.0,,,,,,,,,,,,2B,,,,,,,,yes,,,2022-03-16T18:45:19.000Z,389641,group_8,436724,Prediction2/Open3,1,2022-03-16T17:02:15.000Z,,,,not measured,,True
9,Prediction 2,4,Prediction_2,23,47,,,,,First,4_1B_prediction_2.mp3,5,,,,,,,correct_left,,,,,,,,,,,,,,,,,,,,,,,,,,,,,,,,,,Correct,,,,3680.0,,,,,,,,,,,,1B,,,,,,,,yes,,,2022-03-16T18:45:19.000Z,389641,group_8,436724,Prediction2/Open3,1,2022-03-16T17:02:15.000Z,,,,not measured,,True
9,Prediction 2,4,Prediction_2,24,35,,,,,First,2_2B_prediction_8.mp3,4,,,,,,,incorrect_left,,,,,,,,,,,,,,,,,,,,,,,,,,,,,,,,,,Incorrect,,,,1256.0,,,,,,,,,,,,2B,,,,,,,,yes,,,2022-03-16T18:45:19.000Z,389641,group_8,436724,Prediction2/Open3,1,2022-03-16T17:02:15.000Z,,,,not measured,,True
9,Prediction 2,4,Prediction_2,25,54,,,,,First,2_1B_prediction_7.mp3,6,,,,,,,incorrect_left,,,,,,,,,,,,,,,,,,,,,,,,,,,,,,,,,,Incorrect,,,,967.0,,,,,,,,,,,,1B,,,,,,,,yes,,,2022-03-16T18:45:19.000Z,389641,group_8,436724,Prediction2/Open3,1,2022-03-16T17:02:15.000Z,,,,not measured,,True
9,Prediction 2,4,Prediction_2,26,3,,,,,First,2_8B_prediction_6.mp3,1,,,,,,,correct_left,,,,,,,,,,,,,,,,,,,,,,,,,,,,,,,,,,Correct,,,,892.0,,,,,,,,,,,,8B,,,,,,,,yes,,,2022-03-16T18:45:19.000Z,389641,group_8,436724,Prediction2/Open3,1,2022-03-16T17:02:15.000Z,,,,not measured,,True
9,Prediction 2,4,Prediction_2,27,2,,,,,First,2_8B_prediction_5.mp3,1,,,,,,,correct_left,,,,,,,,,,,,,,,,,,,,,,,,,,,,,,,,,,Correct,,,,895.0,,,,,,,,,,,,8B,,,,,,,,yes,,,2022-03-16T18:45:19.000Z,389641,group_8,436724,Prediction2/Open3,1,2022-03-16T17:02:15.000Z,,,,not measured,,True
9,Prediction 2,4,Prediction_2,28,22,,,,,Second,2_2B_prediction_5.mp3,3,,,,,,,correct_left,,,,,,,,,,,,,,,,,,,,,,,,,,,,,,,,,,Incorrect,,,,698.0,,,,,,,,,,,,2B,,,,,,,,yes,,,2022-03-16T18:45:19.000Z,389641,group_8,436724,Prediction2/Open3,1,2022-03-16T17:02:15.000Z,,,,not measured,,True
9,Prediction 2,4,Prediction_2,29,26,,,,,First,4_2B_prediction_1.mp3,3,,,,,,,correct_left,,,,,,,,,,,,,,,,,,,,,,,,,,,,,,,,,,Correct,,,,833.0,,,,,,,,,,,,2B,,,,,,,,yes,,,2022-03-16T18:45:19.000Z,389641,group_8,436724,Prediction2/Open3,1,2022-03-16T17:02:15.000Z,,,,not measured,,True
9,Prediction 2,4,Prediction_2,30,43,,,,,First,2_1B_prediction_6.mp3,5,,,,,,,correct_left,,,,,,,,,,,,,,,,,,,,,,,,,,,,,,,,,,Correct,,,,1297.0,,,,,,,,,,,,1B,,,,,,,,yes,,,2022-03-16T18:45:19.000Z,389641,group_8,436724,Prediction2/Open3,1,2022-03-16T17:02:15.000Z,,,,not measured,,True
9,Prediction 2,3,Ready?,1,1,,,,,,,1,,,,,,,,,,,,,,,,,,,,,,,,,,,,,,,,,,,,,,,,,,,,,,,,,,,,,,,,,,,,,,,,,yes,,,2022-03-16T18:45:19.000Z,389641,group_8,436724,Prediction2/Open3,1,2022-03-16T17:02:15.000Z,,,,not measured,,True
9,Prediction 2,2,Practice_Prediction,1,5,,,,,Second,,2,,,,,,,,,,incorrect_correct,,,,,,,,,,,,,,,,,,,,,,,,,,,,,,,Correct,,,,1075.0,,,,,,,,,,,,,,,,,,,,yes,,,2022-03-16T18:45:19.000Z,389641,group_8,436724,Prediction2/Open3,1,2022-03-16T17:02:15.000Z,,,,not measured,,True
9,Prediction 2,2,Practice_Prediction,2,4,,,,,First,,2,,,,,,,,,,incorrect_correct,,,,,,,,,,,,,,,,,,,,,,,,,,,,,,,Incorrect,,,,793.0,,,,,,,,,,,,,,,,,,,,yes,,,2022-03-16T18:45:19.000Z,389641,group_8,436724,Prediction2/Open3,1,2022-03-16T17:02:15.000Z,,,,not measured,,True
9,Prediction 2,2,Practice_Prediction,3,6,,,,,First,,2,,,,,,,,,,incorrect_correct,,,,,,,,,,,,,,,,,,,,,,,,,,,,,,,Incorrect,,,,681.0,,,,,,,,,,,,,,,,,,,,yes,,,2022-03-16T18:45:19.000Z,389641,group_8,436724,Prediction2/Open3,1,2022-03-16T17:02:15.000Z,,,,not measured,,True
9,Prediction 2,1,Instructions_Prediction,1,1,,,,,,,1,,,,,,,,,,,,,,,,,,,,,,,,,,,,,,,,,,,,,,,,,,,,,,,,,,,,,,,,,,,,,,,,,yes,,,2022-03-16T18:45:19.000Z,389641,group_8,436724,Prediction2/Open3,1,2022-03-16T17:02:15.000Z,,,,not measured,,True
7,HP_Screen,3,imported_HP Evaluation,1,1,,,,,,,1,,,,,,,,,,,,,,0.0,,,,,,,,,,,,,,,,,,,,,,,,,,,,,,,,,,,,,,,,,,,,,,,,,,,yes,,,2022-03-16T18:45:19.000Z,389641,group_8,436724,Prediction2/Open3,1,2022-03-16T17:02:15.000Z,,,,not measured,,True
7,HP_Screen,2,imported_HP Trials,1,6,,,,,,,1,,,,,,,,,,,,,,0.0,,,"""times=;;;;;;;;;;;;;;;;;---values=;;;;;;;;;;;;;;;;;""",hp5.3.flac,,,,,,,,,,,,,,,,,,,,,,,choice 3,,,,,,,,,,,,,,,,,,,hp5.3.flac,,,,,yes,,,2022-03-16T18:45:19.000Z,389641,group_8,436724,Prediction2/Open3,1,2022-03-16T17:02:15.000Z,,,,not measured,,True
7,HP_Screen,2,imported_HP Trials,2,3,,,,,,,1,,,,,,,,,,,,,,0.0,,,"""times=;;;;;;;;;;;;;;;;;---values=;;;;;;;;;;;;;;;;;""",hp5.2.flac,,,,,,,,,,,,,,,,,,,,,,,choice 2,,,,,,,,,,,,,,,,,,,hp5.2.flac,,,,,yes,,,2022-03-16T18:45:19.000Z,389641,group_8,436724,Prediction2/Open3,1,2022-03-16T17:02:15.000Z,,,,not measured,,True
7,HP_Screen,2,imported_HP Trials,3,4,,,,,,,1,,,,,,,,,,,,,,0.0,,,"""times=;;;;;;;;;;;;;;;;;---values=;;;;;;;;;;;;;;;;;""",hp1.3.flac,,,,,,,,,,,,,,,,,,,,,,,choice 3,,,,,,,,,,,,,,,,,,,hp1.3.flac,,,,,yes,,,2022-03-16T18:45:19.000Z,389641,group_8,436724,Prediction2/Open3,1,2022-03-16T17:02:15.000Z,,,,not measured,,True
7,HP_Screen,2,imported_HP Trials,4,2,,,,,,,1,,,,,,,,,,,,,,0.0,,,"""times=;;;;;;;;;;;;;;;;;---values=;;;;;;;;;;;;;;;;;""",hp6.3.flac,,,,,,,,,,,,,,,,,,,,,,,choice 3,,,,,,,,,,,,,,,,,,,hp6.3.flac,,,,,yes,,,2022-03-16T18:45:19.000Z,389641,group_8,436724,Prediction2/Open3,1,2022-03-16T17:02:15.000Z,,,,not measured,,True
7,HP_Screen,2,imported_HP Trials,5,5,,,,,,,1,,,,,,,,,,,,,,0.0,,,"""times=;;;;;;;;;;;;;;;;;---values=;;;;;;;;;;;;;;;;;""",hp6.1.flac,,,,,,,,,,,,,,,,,,,,,,,choice 1,,,,,,,,,,,,,,,,,,,hp6.1.flac,,,,,yes,,,2022-03-16T18:45:19.000Z,389641,group_8,436724,Prediction2/Open3,1,2022-03-16T17:02:15.000Z,,,,not measured,,True
7,HP_Screen,2,imported_HP Trials,6,1,,,,,,,1,,,,,,,,,,,,,,0.0,,,"""times=;;;;;;;;;;;;;;;;;---values=;;;;;;;;;;;;;;;;;""",hp4.1.flac,,,,,,,,,,,,,,,,,,,,,,,choice 1,,,,,,,,,,,,,,,,,,,hp4.1.flac,,,,,yes,,,2022-03-16T18:45:19.000Z,389641,group_8,436724,Prediction2/Open3,1,2022-03-16T17:02:15.000Z,,,,not measured,,True
7,HP_Screen,1,imported_HP Instructions,1,1,,,,,,,1,,,,,,,,,,,,,,,3.0,,,,,,,,,,,,,,,,,,,,,,,,,,,,,,,,,,,,,,,,,,,,,,,,,,yes,,,2022-03-16T18:45:19.000Z,389641,group_8,436724,Prediction2/Open3,1,2022-03-16T17:02:15.000Z,,,,not measured,,True
6,AP_Screen,3,imported_AP_eval,1,1,,,,,,,1,,,,,,,,,,,,,,,,,,,,,,,,,,,,,,,0.0,,,,,,,,,,,,,,,,,,,,,,,,,,,,,,,,,,yes,,,2022-03-16T18:45:19.000Z,389641,group_8,436724,Prediction2/Open3,1,2022-03-16T17:02:15.000Z,,,,not measured,,True
6,AP_Screen,2,imported_AP_headphone test,1,1,,,,,,,1,,,,,,,,,,,,three,,,,,,,,,,,,,,,1.0,,,,0.0,,,,,,,,,,,,,,,,,,,,,,,,,,,,,,,,I_O_S,,yes,,,2022-03-16T18:45:19.000Z,389641,group_8,436724,Prediction2/Open3,1,2022-03-16T17:02:15.000Z,,,,not measured,,True
6,AP_Screen,2,imported_AP_headphone test,2,4,,,,,,,4,,,,,,,,,,,,one,,,,,,,,,,,,,,,1.0,,,,0.0,,,,,,,,,,,,,,,,,,,,,,,,,,,,,,,,S_I_O,,yes,,,2022-03-16T18:45:19.000Z,389641,group_8,436724,Prediction2/Open3,1,2022-03-16T17:02:15.000Z,,,,not measured,,True
6,AP_Screen,2,imported_AP_headphone test,3,5,,,,,,,5,,,,,,,,,,,,two,,,,,,,,,,,,,,,1.0,,,,0.0,,,,,,,,,,,,,,,,,,,,,,,,,,,,,,,,O_S_I,,yes,,,2022-03-16T18:45:19.000Z,389641,group_8,436724,Prediction2/Open3,1,2022-03-16T17:02:15.000Z,,,,not measured,,True
6,AP_Screen,2,imported_AP_headphone test,4,6,,,,,,,6,,,,,,,,,,,,three,,,,,,,,,,,,,,,1.0,,,,0.0,,,,,,,,,,,,,,,,,,,,,,,,,,,,,,,,O_I_S,,yes,,,2022-03-16T18:45:19.000Z,389641,group_8,436724,Prediction2/Open3,1,2022-03-16T17:02:15.000Z,,,,not measured,,True
6,AP_Screen,2,imported_AP_headphone test,5,2,,,,,,,2,,,,,,,,,,,,two,,,,,,,,,,,,,,,1.0,,,,0.0,,,,,,,,,,,,,,,,,,,,,,,,,,,,,,,,I_S_O,,yes,,,2022-03-16T18:45:19.000Z,389641,group_8,436724,Prediction2/Open3,1,2022-03-16T17:02:15.000Z,,,,not measured,,True
6,AP_Screen,2,imported_AP_headphone test,6,3,,,,,,,3,,,,,,,,,,,,one,,,,,,,,,,,,,,,1.0,,,,0.0,,,,,,,,,,,,,,,,,,,,,,,,,,,,,,,,S_O_I,,yes,,,2022-03-16T18:45:19.000Z,389641,group_8,436724,Prediction2/Open3,1,2022-03-16T17:02:15.000Z,,,,not measured,,True
6,AP_Screen,1,imported_AP_instruction,1,1,,,,,,,1,,,,,,,,,,,,,,,,,,,,,,,,,,,,,,,,,,,,,,,,,,,,,,,,,,,,,,,,,,,,,,,,,yes,,,2022-03-16T18:45:19.000Z,389641,group_8,436724,Prediction2/Open3,1,2022-03-16T17:02:15.000Z,,,,not measured,,True
4,GenInstructPredOpen,1,InstructionsPredOpen,1,1,,,,,,,1,,,,,,,,,,,,,,,,,,,,,,,,,,,,,,,,,,,,,,,,,,,,,,,,,,,,,,,,,,,,,,,,,yes,,,2022-03-16T18:45:19.000Z,389641,group_8,436724,Prediction2/Open3,1,2022-03-16T17:02:15.000Z,,,,not measured,,True
2,Consent,1,Consent,1,1,,,,,,,1,,,,,,,,,,,,,,,,,,,,,,,,,,,,,,,,,,,,,,,,,,,,,,,,,,,,,,,,,,,,,,,,,yes,,,2022-03-16T18:45:19.000Z,389641,group_8,436724,Prediction2/Open3,1,2022-03-16T17:02:15.000Z,,,,not measured,,True
