Block_Nr,Block_Name,Task_Nr,Task_Name,Trial_Nr,Trial_Id,ab_pitch,age_range,answer,best_instru,choice,clip,Condition_Id,conditions,consent,correct_incorrect_m_2,correct_incorrect_m_3,correct_incorrect_mem_1,correct_incorrect_p_1,correct_incorrect_p_2,correct_incorrect_p_3,correct_incorrect_practice_m,correct_incorrect_practice_p,correctCount,decision,earworm,errorCount,exampleCount,familiarity,fileArray,filePick,Frequenc,genre,genre_3,genre_4,hour,imagery,imagery_2,Instr,isCorrect,listen_time,music_theory,name_instru,nrErrors,num_instru,participant_choice,participant_choice_2,participant_choice2,participant_spacePress,participant_spacePress2,played_notplayed,practice_catseg_scramble,relative_pitch,response,response_seg,response_seg2,response_Time2,responseTime,retestCount,scramble_cat_1,scramble_cat_3,scramble_cat_4,scramble_catseg_4,scramble_level,scramble_m_1,scramble_m_2,scramble_m_3,scramble_open_3,scramble_p_1,scramble_p_2,scramble_p_3,set1response,soundName,strategy,time_atClipStart1,toneSequence,always_fullscreen,completed,crowdsourcing_code,crowdsourcing_subj_id,end_time,exp_subject_id,group_name,rec_session_id,session_name,session_nr,start_time,subj_counter_global,subj_counter_per_group,subject_code,time_delay_offset,time_measure_std,unlocked
13,Post-Survey,1,Post-Survey,1,1,No,10-26,,guitar,,,1,,,,,,,,,,,,,4.0,,,1.0,,,Weekly,Rock,Metal,Grunge,1.5 hours,,3.0,10 or more years,,60-90 min,0 years,Guitar,,1.0,,,,,,option_1,,Yes,,,,,,,,,,,,,,,,,,,,,focusing on emotional changes and harsh transitions,,,,yes,,,2022-03-16T17:22:52.000Z,389621,group_8,436701,Prediction2/Open3,1,2022-03-16T16:42:06.000Z,,,,not measured,,True
11,OpenEndedSeg_3,4,OpenEndedSeg_3,1,4,,,,,,,1,,,,,,,,,,,,,,,,,,,,,,,,,,,,,,,,,,,,"""times=1647450082436;1647450099231;1647450108711;1647450122440;1647450132163;1647450142068;1647450146240---values=;16792;26272;40001;49724;59628;63801""","""times=1647450082436;1647450166418;1647450175256;1647450183042;1647450190862;1647450199083;1647450206415;1647450212637---values=;16717;25556;33342;41162;49383;56714;62937""",,,,,,,,,,,,,,,,,,intact,,,,,,,,,,yes,,,2022-03-16T17:22:52.000Z,389621,group_8,436701,Prediction2/Open3,1,2022-03-16T16:42:06.000Z,,,,not measured,,True
11,OpenEndedSeg_3,4,OpenEndedSeg_3,2,15,,,,,,,4,,,,,,,,,,,,,,,,,,,,,,,,,,,,,,,,,,,,"""times=1647450216982;1647450222295;1647450224588;1647450225971;1647450231729;1647450239813;1647450245033;1647450251830;1647450258443;1647450265206;1647450276504---values=;5311;7604;8987;14745;22829;28049;34846;41459;48222;59519""","""times=1647450216982;1647450289705;1647450293102;1647450299276;1647450305183;1647450309220;1647450315115;1647450323964;1647450328942;1647450342826;1647450345306---values=;5481;8878;15052;20959;24996;30891;39739;44718;58602;61082""",,,,,,,,,,,,,,,,,,1B,,,,,,,,,,yes,,,2022-03-16T17:22:52.000Z,389621,group_8,436701,Prediction2/Open3,1,2022-03-16T16:42:06.000Z,,,,not measured,,True
11,OpenEndedSeg_3,4,OpenEndedSeg_3,3,2,,,,,,,1,,,,,,,,,,,,,,,,,,,,,,,,,,,,,,,,,,,,"""times=1647450351470;1647450386282;1647450402403---values=;34809;50930""","""times=1647450351470;1647450452522;1647450468310---values=;34903;50691""",,,,,,,,,,,,,,,,,,intact,,,,,,,,,,yes,,,2022-03-16T17:22:52.000Z,389621,group_8,436701,Prediction2/Open3,1,2022-03-16T16:42:06.000Z,,,,not measured,,True
11,OpenEndedSeg_3,4,OpenEndedSeg_3,4,13,,,,,,,4,,,,,,,,,,,,,,,,,,,,,,,,,,,,,,,,,,,,"""times=1647450483731;1647450488494;1647450490850;1647450494563;1647450500886;1647450505423;1647450510801;1647450514698;1647450516765;1647450518916;1647450520565;1647450523286;1647450525346;1647450527350;1647450528856;1647450531747;1647450532679;1647450536498;1647450538855;1647450542008;1647450544371---values=;4762;7118;10831;17154;21691;27068;30966;33033;35184;36832;39554;41614;43617;45124;48015;48947;52766;55123;58276;60639""","""times=1647450483731;1647450555979;1647450558996;1647450560331;1647450562148;1647450563889;1647450568066;1647450572471;1647450574395;1647450576283;1647450578289;1647450580230;1647450582096;1647450586486;1647450588094;1647450590479;1647450593963;1647450596161;1647450598066;1647450599389;1647450604653;1647450608109;1647450616616---values=;4633;7650;8985;10802;12543;16720;21125;23049;24937;26943;28884;30750;35140;36748;39133;42617;44815;46720;48043;53307;56763;65270""",,,,,,,,,,,,,,,,,,1B,,,,,,,,,,yes,,,2022-03-16T17:22:52.000Z,389621,group_8,436701,Prediction2/Open3,1,2022-03-16T16:42:06.000Z,,,,not measured,,True
11,OpenEndedSeg_3,4,OpenEndedSeg_3,5,8,,,,,,,2,,,,,,,,,,,,,,,,,,,,,,,,,,,,,,,,,,,,"""times=1647450618943;1647450635697;1647450651746;1647450666092---values=;16752;32801;47146""","""times=1647450618943;1647450703280;1647450718496;1647450733889---values=;16674;31890;47283""",,,,,,,,,,,,,,,,,,8B,,,,,,,,,,yes,,,2022-03-16T17:22:52.000Z,389621,group_8,436701,Prediction2/Open3,1,2022-03-16T16:42:06.000Z,,,,not measured,,True
11,OpenEndedSeg_3,4,OpenEndedSeg_3,6,5,,,,,,,2,,,,,,,,,,,,,,,,,,,,,,,,,,,,,,,,,,,,"""times=1647450754243;1647450770934;1647450786918;1647450804047---values=;16689;32673;49802""","""times=1647450754243;1647450838653;1647450854489;1647450870558---values=;16855;32691;48760""",,,,,,,,,,,,,,,,,,8B,,,,,,,,,,yes,,,2022-03-16T17:22:52.000Z,389621,group_8,436701,Prediction2/Open3,1,2022-03-16T16:42:06.000Z,,,,not measured,,True
11,OpenEndedSeg_3,4,OpenEndedSeg_3,7,11,,,,,,,3,,,,,,,,,,,,,,,,,,,,,,,,,,,,,,,,,,,,"""times=1647450889316;1647450894499;1647450903405;1647450906308;1647450910188;1647450914037;1647450922149;1647450926646;1647450938255;1647450942043;1647450946204;1647450952114---values=;5180;14087;16990;20870;24719;32831;37328;48937;52725;56886;62796""","""times=1647450889316;1647450961809;1647450970662;1647450974940;1647450978193;1647450981906;1647450987897;1647450989976;1647450995336;1647451005938;1647451009951;1647451014012;1647451015816;1647451018610---values=;4584;13438;17716;20969;24682;30673;32752;38112;48714;52727;56788;58592;61386""",,,,,,,,,,,,,,,,,,2B,,,,,,,,,,yes,,,2022-03-16T17:22:52.000Z,389621,group_8,436701,Prediction2/Open3,1,2022-03-16T16:42:06.000Z,,,,not measured,,True
11,OpenEndedSeg_3,4,OpenEndedSeg_3,8,9,,,,,,,3,,,,,,,,,,,,,,,,,,,,,,,,,,,,,,,,,,,,"""times=1647451025103;1647451033757;1647451037924;1647451045926;1647451062161;1647451067922;1647451075352;1647451078168---values=;8652;12819;20820;37056;42817;50247;53063""","""times=1647451025103;1647451102068;1647451106967;1647451112763;1647451129518;1647451133327;1647451145681;1647451157104---values=;9726;14625;20420;37176;40985;53339;64762""",,,,,,,,,,,,,,,,,,2B,,,,,,,,,,yes,,,2022-03-16T17:22:52.000Z,389621,group_8,436701,Prediction2/Open3,1,2022-03-16T16:42:06.000Z,,,,not measured,,True
11,OpenEndedSeg_3,3,Ready?,1,1,,,,,,,1,,,,,,,,,,,,,,,,,,,,,,,,,,,,,,,,,,,,,,,,,,,,,,,,,,,,,,,,,,,,,,,,,yes,,,2022-03-16T17:22:52.000Z,389621,group_8,436701,Prediction2/Open3,1,2022-03-16T16:42:06.000Z,,,,not measured,,True
11,OpenEndedSeg_3,2,Practice_OpenEnded,1,1,,,,,,,1,,,,,,,,,,,,,,,,,,,,,,,,,,,,,,,,,,,,"""times=1647449933523;1647449936243;1647449944095;1647449948888;1647449973357;1647449980008;1647449989181---values=10226;12946;20798;25591;50060;56711;65884""","""times=1647450008884;1647450011818;1647450019718;1647450024188;1647450033648;1647450048328;1647450053507;1647450065834;1647450069857---values=10025;12959;20859;25329;34789;49468;54648;66975;70998""",,,,,,,,,,,,,,,,,,,,,,,,,,,,yes,,,2022-03-16T17:22:52.000Z,389621,group_8,436701,Prediction2/Open3,1,2022-03-16T16:42:06.000Z,,,,not measured,,True
11,OpenEndedSeg_3,1,Instructions_Open,1,1,,,,,,,1,,,,,,,,,,,,,,,,,,,,,,,,,,,,,,,,,,,,,,,,,,,,,,,,,,,,,,,,,,,,,,,,,yes,,,2022-03-16T17:22:52.000Z,389621,group_8,436701,Prediction2/Open3,1,2022-03-16T16:42:06.000Z,,,,not measured,,True
9,Prediction 2,4,Prediction_2,1,50,,,,,Second,4_1B_prediction_5.mp3,5,,,,,,,correct_left,,,,,,,,,,,,,,,,,,,,,,,,,,,,,,,,,,Incorrect,,,,958.0,,,,,,,,,,,,1B,,,,,,,,yes,,,2022-03-16T17:22:52.000Z,389621,group_8,436701,Prediction2/Open3,1,2022-03-16T16:42:06.000Z,,,,not measured,,True
9,Prediction 2,4,Prediction_2,2,25,,,,,Second,2_2B_prediction_8.mp3,3,,,,,,,correct_left,,,,,,,,,,,,,,,,,,,,,,,,,,,,,,,,,,Incorrect,,,,1058.0,,,,,,,,,,,,2B,,,,,,,,yes,,,2022-03-16T17:22:52.000Z,389621,group_8,436701,Prediction2/Open3,1,2022-03-16T16:42:06.000Z,,,,not measured,,True
9,Prediction 2,4,Prediction_2,3,39,,,,,First,4_2B_prediction_4.mp3,4,,,,,,,incorrect_left,,,,,,,,,,,,,,,,,,,,,,,,,,,,,,,,,,Incorrect,,,,650.0,,,,,,,,,,,,2B,,,,,,,,yes,,,2022-03-16T17:22:52.000Z,389621,group_8,436701,Prediction2/Open3,1,2022-03-16T16:42:06.000Z,,,,not measured,,True
9,Prediction 2,4,Prediction_2,4,44,,,,,Second,2_1B_prediction_7.mp3,5,,,,,,,correct_left,,,,,,,,,,,,,,,,,,,,,,,,,,,,,,,,,,Incorrect,,,,1428.0,,,,,,,,,,,,1B,,,,,,,,yes,,,2022-03-16T17:22:52.000Z,389621,group_8,436701,Prediction2/Open3,1,2022-03-16T16:42:06.000Z,,,,not measured,,True
9,Prediction 2,4,Prediction_2,5,24,,,,,First,2_2B_prediction_7.mp3,3,,,,,,,correct_left,,,,,,,,,,,,,,,,,,,,,,,,,,,,,,,,,,Correct,,,,902.0,,,,,,,,,,,,2B,,,,,,,,yes,,,2022-03-16T17:22:52.000Z,389621,group_8,436701,Prediction2/Open3,1,2022-03-16T16:42:06.000Z,,,,not measured,,True
9,Prediction 2,4,Prediction_2,6,42,,,,,Second,2_1B_prediction_5.mp3,5,,,,,,,correct_left,,,,,,,,,,,,,,,,,,,,,,,,,,,,,,,,,,Incorrect,,,,901.0,,,,,,,,,,,,1B,,,,,,,,yes,,,2022-03-16T17:22:52.000Z,389621,group_8,436701,Prediction2/Open3,1,2022-03-16T16:42:06.000Z,,,,not measured,,True
9,Prediction 2,4,Prediction_2,7,12,,,,,Second,2_8B_prediction_5.mp3,2,,,,,,,incorrect_left,,,,,,,,,,,,,,,,,,,,,,,,,,,,,,,,,,Correct,,,,644.0,,,,,,,,,,,,8B,,,,,,,,yes,,,2022-03-16T17:22:52.000Z,389621,group_8,436701,Prediction2/Open3,1,2022-03-16T16:42:06.000Z,,,,not measured,,True
9,Prediction 2,4,Prediction_2,8,53,,,,,First,2_1B_prediction_6.mp3,6,,,,,,,incorrect_left,,,,,,,,,,,,,,,,,,,,,,,,,,,,,,,,,,Incorrect,,,,941.0,,,,,,,,,,,,1B,,,,,,,,yes,,,2022-03-16T17:22:52.000Z,389621,group_8,436701,Prediction2/Open3,1,2022-03-16T16:42:06.000Z,,,,not measured,,True
9,Prediction 2,4,Prediction_2,9,26,,,,,First,4_2B_prediction_1.mp3,3,,,,,,,correct_left,,,,,,,,,,,,,,,,,,,,,,,,,,,,,,,,,,Correct,,,,877.0,,,,,,,,,,,,2B,,,,,,,,yes,,,2022-03-16T17:22:52.000Z,389621,group_8,436701,Prediction2/Open3,1,2022-03-16T16:42:06.000Z,,,,not measured,,True
9,Prediction 2,4,Prediction_2,10,9,,,,,First,4_8B_prediction_4.mp3,1,,,,,,,correct_left,,,,,,,,,,,,,,,,,,,,,,,,,,,,,,,,,,Correct,,,,1326.0,,,,,,,,,,,,8B,,,,,,,,yes,,,2022-03-16T17:22:52.000Z,389621,group_8,436701,Prediction2/Open3,1,2022-03-16T16:42:06.000Z,,,,not measured,,True
9,Prediction 2,4,Prediction_2,11,10,,,,,First,4_8B_prediction_8.mp3,1,,,,,,,correct_left,,,,,,,,,,,,,,,,,,,,,,,,,,,,,,,,,,Correct,,,,1039.0,,,,,,,,,,,,8B,,,,,,,,yes,,,2022-03-16T17:22:52.000Z,389621,group_8,436701,Prediction2/Open3,1,2022-03-16T16:42:06.000Z,,,,not measured,,True
9,Prediction 2,4,Prediction_2,12,45,,,,,First,2_1B_prediction_8.mp3,5,,,,,,,correct_left,,,,,,,,,,,,,,,,,,,,,,,,,,,,,,,,,,Correct,,,,1757.0,,,,,,,,,,,,1B,,,,,,,,yes,,,2022-03-16T17:22:52.000Z,389621,group_8,436701,Prediction2/Open3,1,2022-03-16T16:42:06.000Z,,,,not measured,,True
9,Prediction 2,4,Prediction_2,13,11,,,,,Second,2_8B_prediction_4.mp3,2,,,,,,,incorrect_left,,,,,,,,,,,,,,,,,,,,,,,,,,,,,,,,,,Correct,,,,621.0,,,,,,,,,,,,8B,,,,,,,,yes,,,2022-03-16T17:22:52.000Z,389621,group_8,436701,Prediction2/Open3,1,2022-03-16T16:42:06.000Z,,,,not measured,,True
9,Prediction 2,4,Prediction_2,14,5,,,,,First,2_8B_prediction_8.mp3,1,,,,,,,correct_left,,,,,,,,,,,,,,,,,,,,,,,,,,,,,,,,,,Correct,,,,1586.0,,,,,,,,,,,,8B,,,,,,,,yes,,,2022-03-16T17:22:52.000Z,389621,group_8,436701,Prediction2/Open3,1,2022-03-16T16:42:06.000Z,,,,not measured,,True
9,Prediction 2,4,Prediction_2,15,21,,,,,Second,2_2B_prediction_4.mp3,3,,,,,,,correct_left,,,,,,,,,,,,,,,,,,,,,,,,,,,,,,,,,,Incorrect,,,,543.0,,,,,,,,,,,,2B,,,,,,,,yes,,,2022-03-16T17:22:52.000Z,389621,group_8,436701,Prediction2/Open3,1,2022-03-16T16:42:06.000Z,,,,not measured,,True
9,Prediction 2,4,Prediction_2,16,6,,,,,First,4_8B_prediction_1.mp3,1,,,,,,,correct_left,,,,,,,,,,,,,,,,,,,,,,,,,,,,,,,,,,Correct,,,,557.0,,,,,,,,,,,,8B,,,,,,,,yes,,,2022-03-16T17:22:52.000Z,389621,group_8,436701,Prediction2/Open3,1,2022-03-16T16:42:06.000Z,,,,not measured,,True
9,Prediction 2,4,Prediction_2,17,48,,,,,Second,4_1B_prediction_3.mp3,5,,,,,,,correct_left,,,,,,,,,,,,,,,,,,,,,,,,,,,,,,,,,,Incorrect,,,,836.0,,,,,,,,,,,,1B,,,,,,,,yes,,,2022-03-16T17:22:52.000Z,389621,group_8,436701,Prediction2/Open3,1,2022-03-16T16:42:06.000Z,,,,not measured,,True
9,Prediction 2,4,Prediction_2,18,37,,,,,Second,4_2B_prediction_2.mp3,4,,,,,,,incorrect_left,,,,,,,,,,,,,,,,,,,,,,,,,,,,,,,,,,Correct,,,,1749.0,,,,,,,,,,,,2B,,,,,,,,yes,,,2022-03-16T17:22:52.000Z,389621,group_8,436701,Prediction2/Open3,1,2022-03-16T16:42:06.000Z,,,,not measured,,True
9,Prediction 2,4,Prediction_2,19,56,,,,,Second,4_1B_prediction_1.mp3,6,,,,,,,incorrect_left,,,,,,,,,,,,,,,,,,,,,,,,,,,,,,,,,,Correct,,,,828.0,,,,,,,,,,,,1B,,,,,,,,yes,,,2022-03-16T17:22:52.000Z,389621,group_8,436701,Prediction2/Open3,1,2022-03-16T16:42:06.000Z,,,,not measured,,True
9,Prediction 2,4,Prediction_2,20,59,,,,,First,4_1B_prediction_4.mp3,6,,,,,,,incorrect_left,,,,,,,,,,,,,,,,,,,,,,,,,,,,,,,,,,Incorrect,,,,539.0,,,,,,,,,,,,1B,,,,,,,,yes,,,2022-03-16T17:22:52.000Z,389621,group_8,436701,Prediction2/Open3,1,2022-03-16T16:42:06.000Z,,,,not measured,,True
9,Prediction 2,4,Prediction_2,21,17,,,,,First,4_8B_prediction_2.mp3,2,,,,,,,incorrect_left,,,,,,,,,,,,,,,,,,,,,,,,,,,,,,,,,,Incorrect,,,,670.0,,,,,,,,,,,,8B,,,,,,,,yes,,,2022-03-16T17:22:52.000Z,389621,group_8,436701,Prediction2/Open3,1,2022-03-16T16:42:06.000Z,,,,not measured,,True
9,Prediction 2,4,Prediction_2,22,51,,,,,Second,2_1B_prediction_4.mp3,6,,,,,,,incorrect_left,,,,,,,,,,,,,,,,,,,,,,,,,,,,,,,,,,Correct,,,,1429.0,,,,,,,,,,,,1B,,,,,,,,yes,,,2022-03-16T17:22:52.000Z,389621,group_8,436701,Prediction2/Open3,1,2022-03-16T16:42:06.000Z,,,,not measured,,True
9,Prediction 2,4,Prediction_2,23,40,,,,,First,4_2B_prediction_5.mp3,4,,,,,,,incorrect_left,,,,,,,,,,,,,,,,,,,,,,,,,,,,,,,,,,Incorrect,,,,2248.0,,,,,,,,,,,,2B,,,,,,,,yes,,,2022-03-16T17:22:52.000Z,389621,group_8,436701,Prediction2/Open3,1,2022-03-16T16:42:06.000Z,,,,not measured,,True
9,Prediction 2,4,Prediction_2,24,28,,,,,Second,4_2B_prediction_3.mp3,3,,,,,,,correct_left,,,,,,,,,,,,,,,,,,,,,,,,,,,,,,,,,,Incorrect,,,,525.0,,,,,,,,,,,,2B,,,,,,,,yes,,,2022-03-16T17:22:52.000Z,389621,group_8,436701,Prediction2/Open3,1,2022-03-16T16:42:06.000Z,,,,not measured,,True
9,Prediction 2,4,Prediction_2,25,4,,,,,First,2_8B_prediction_7.mp3,1,,,,,,,correct_left,,,,,,,,,,,,,,,,,,,,,,,,,,,,,,,,,,Correct,,,,664.0,,,,,,,,,,,,8B,,,,,,,,yes,,,2022-03-16T17:22:52.000Z,389621,group_8,436701,Prediction2/Open3,1,2022-03-16T16:42:06.000Z,,,,not measured,,True
9,Prediction 2,4,Prediction_2,26,57,,,,,Second,4_1B_prediction_2.mp3,6,,,,,,,incorrect_left,,,,,,,,,,,,,,,,,,,,,,,,,,,,,,,,,,Correct,,,,740.0,,,,,,,,,,,,1B,,,,,,,,yes,,,2022-03-16T17:22:52.000Z,389621,group_8,436701,Prediction2/Open3,1,2022-03-16T16:42:06.000Z,,,,not measured,,True
9,Prediction 2,4,Prediction_2,27,13,,,,,Second,2_8B_prediction_6.mp3,2,,,,,,,incorrect_left,,,,,,,,,,,,,,,,,,,,,,,,,,,,,,,,,,Correct,,,,1300.0,,,,,,,,,,,,8B,,,,,,,,yes,,,2022-03-16T17:22:52.000Z,389621,group_8,436701,Prediction2/Open3,1,2022-03-16T16:42:06.000Z,,,,not measured,,True
9,Prediction 2,4,Prediction_2,28,32,,,,,First,2_2B_prediction_5.mp3,4,,,,,,,incorrect_left,,,,,,,,,,,,,,,,,,,,,,,,,,,,,,,,,,Incorrect,,,,611.0,,,,,,,,,,,,2B,,,,,,,,yes,,,2022-03-16T17:22:52.000Z,389621,group_8,436701,Prediction2/Open3,1,2022-03-16T16:42:06.000Z,,,,not measured,,True
9,Prediction 2,4,Prediction_2,29,33,,,,,First,2_2B_prediction_6.mp3,4,,,,,,,incorrect_left,,,,,,,,,,,,,,,,,,,,,,,,,,,,,,,,,,Incorrect,,,,926.0,,,,,,,,,,,,2B,,,,,,,,yes,,,2022-03-16T17:22:52.000Z,389621,group_8,436701,Prediction2/Open3,1,2022-03-16T16:42:06.000Z,,,,not measured,,True
9,Prediction 2,4,Prediction_2,30,18,,,,,Second,4_8B_prediction_3.mp3,2,,,,,,,incorrect_left,,,,,,,,,,,,,,,,,,,,,,,,,,,,,,,,,,Correct,,,,666.0,,,,,,,,,,,,8B,,,,,,,,yes,,,2022-03-16T17:22:52.000Z,389621,group_8,436701,Prediction2/Open3,1,2022-03-16T16:42:06.000Z,,,,not measured,,True
9,Prediction 2,3,Ready?,1,1,,,,,,,1,,,,,,,,,,,,,,,,,,,,,,,,,,,,,,,,,,,,,,,,,,,,,,,,,,,,,,,,,,,,,,,,,yes,,,2022-03-16T17:22:52.000Z,389621,group_8,436701,Prediction2/Open3,1,2022-03-16T16:42:06.000Z,,,,not measured,,True
9,Prediction 2,2,Practice_Prediction,1,2,,,,,,,1,,,,,,,,,,correct_incorrect,,,,,,,,,,,,,,,,,,,,,,,,,,,,,,,,,,,,,,,,,,,,,,,,,,,,,,,yes,,,2022-03-16T17:22:52.000Z,389621,group_8,436701,Prediction2/Open3,1,2022-03-16T16:42:06.000Z,,,,not measured,,True
9,Prediction 2,2,Practice_Prediction,2,3,,,,,First,,1,,,,,,,,,,correct_incorrect,,,,,,,,,,,,,,,,,,,,,,,,,,,,,,,Correct,,,,675.0,,,,,,,,,,,,,,,,,,,,yes,,,2022-03-16T17:22:52.000Z,389621,group_8,436701,Prediction2/Open3,1,2022-03-16T16:42:06.000Z,,,,not measured,,True
9,Prediction 2,2,Practice_Prediction,3,4,,,,,First,,2,,,,,,,,,,incorrect_correct,,,,,,,,,,,,,,,,,,,,,,,,,,,,,,,Incorrect,,,,634.0,,,,,,,,,,,,,,,,,,,,yes,,,2022-03-16T17:22:52.000Z,389621,group_8,436701,Prediction2/Open3,1,2022-03-16T16:42:06.000Z,,,,not measured,,True
9,Prediction 2,1,Instructions_Prediction,1,1,,,,,,,1,,,,,,,,,,,,,,,,,,,,,,,,,,,,,,,,,,,,,,,,,,,,,,,,,,,,,,,,,,,,,,,,,yes,,,2022-03-16T17:22:52.000Z,389621,group_8,436701,Prediction2/Open3,1,2022-03-16T16:42:06.000Z,,,,not measured,,True
7,AP_Screen,3,imported_AP_eval,1,1,,,,,,,1,,,,,,,,,,,,,,,,,,,,,,,,,,,,,,,0.0,,,,,,,,,,,,,,,,,,,,,,,,,,,,,,,,,,yes,,,2022-03-16T17:22:52.000Z,389621,group_8,436701,Prediction2/Open3,1,2022-03-16T16:42:06.000Z,,,,not measured,,True
7,AP_Screen,2,imported_AP_headphone test,1,4,,,,,,,4,,,,,,,,,,,,one,,,,,,,,,,,,,,,1.0,,,,0.0,,,,,,,,,,,,,,,,,,,,,,,,,,,,,,,,S_I_O,,yes,,,2022-03-16T17:22:52.000Z,389621,group_8,436701,Prediction2/Open3,1,2022-03-16T16:42:06.000Z,,,,not measured,,True
7,AP_Screen,2,imported_AP_headphone test,2,2,,,,,,,2,,,,,,,,,,,,two,,,,,,,,,,,,,,,1.0,,,,0.0,,,,,,,,,,,,,,,,,,,,,,,,,,,,,,,,I_S_O,,yes,,,2022-03-16T17:22:52.000Z,389621,group_8,436701,Prediction2/Open3,1,2022-03-16T16:42:06.000Z,,,,not measured,,True
7,AP_Screen,2,imported_AP_headphone test,3,6,,,,,,,6,,,,,,,,,,,,three,,,,,,,,,,,,,,,1.0,,,,0.0,,,,,,,,,,,,,,,,,,,,,,,,,,,,,,,,O_I_S,,yes,,,2022-03-16T17:22:52.000Z,389621,group_8,436701,Prediction2/Open3,1,2022-03-16T16:42:06.000Z,,,,not measured,,True
7,AP_Screen,2,imported_AP_headphone test,4,1,,,,,,,1,,,,,,,,,,,,three,,,,,,,,,,,,,,,1.0,,,,0.0,,,,,,,,,,,,,,,,,,,,,,,,,,,,,,,,I_O_S,,yes,,,2022-03-16T17:22:52.000Z,389621,group_8,436701,Prediction2/Open3,1,2022-03-16T16:42:06.000Z,,,,not measured,,True
7,AP_Screen,2,imported_AP_headphone test,5,5,,,,,,,5,,,,,,,,,,,,two,,,,,,,,,,,,,,,1.0,,,,0.0,,,,,,,,,,,,,,,,,,,,,,,,,,,,,,,,O_S_I,,yes,,,2022-03-16T17:22:52.000Z,389621,group_8,436701,Prediction2/Open3,1,2022-03-16T16:42:06.000Z,,,,not measured,,True
7,AP_Screen,2,imported_AP_headphone test,6,3,,,,,,,3,,,,,,,,,,,,one,,,,,,,,,,,,,,,1.0,,,,0.0,,,,,,,,,,,,,,,,,,,,,,,,,,,,,,,,S_O_I,,yes,,,2022-03-16T17:22:52.000Z,389621,group_8,436701,Prediction2/Open3,1,2022-03-16T16:42:06.000Z,,,,not measured,,True
7,AP_Screen,1,imported_AP_instruction,1,1,,,,,,,1,,,,,,,,,,,,,,,,,,,,,,,,,,,,,,,,,,,,,,,,,,,,,,,,,,,,,,,,,,,,,,,,,yes,,,2022-03-16T17:22:52.000Z,389621,group_8,436701,Prediction2/Open3,1,2022-03-16T16:42:06.000Z,,,,not measured,,True
6,HP_Screen,3,imported_HP Evaluation,1,1,,,,,,,1,,,,,,,,,,,,,,0.0,,,,,,,,,,,,,,,,,,,,,,,,,,,,,,,,,,,,,,,,,,,,,,,,,,,yes,,,2022-03-16T17:22:52.000Z,389621,group_8,436701,Prediction2/Open3,1,2022-03-16T16:42:06.000Z,,,,not measured,,True
6,HP_Screen,2,imported_HP Trials,1,1,,,,,,,1,,,,,,,,,,,,,,0.0,,,"""times=;;;;;;;;;;;;;;;;;---values=;;;;;;;;;;;;;;;;;""",hp2.2.flac,,,,,,,,,,,,,,,,,,,,,,,choice 2,,,,,,,,,,,,,,,,,,,hp2.2.flac,,,,,yes,,,2022-03-16T17:22:52.000Z,389621,group_8,436701,Prediction2/Open3,1,2022-03-16T16:42:06.000Z,,,,not measured,,True
6,HP_Screen,2,imported_HP Trials,2,2,,,,,,,1,,,,,,,,,,,,,,0.0,,,"""times=;;;;;;;;;;;;;;;;;---values=;;;;;;;;;;;;;;;;;""",hp1.2.flac,,,,,,,,,,,,,,,,,,,,,,,choice 2,,,,,,,,,,,,,,,,,,,hp1.2.flac,,,,,yes,,,2022-03-16T17:22:52.000Z,389621,group_8,436701,Prediction2/Open3,1,2022-03-16T16:42:06.000Z,,,,not measured,,True
6,HP_Screen,2,imported_HP Trials,3,6,,,,,,,1,,,,,,,,,,,,,,0.0,,,"""times=;;;;;;;;;;;;;;;;;---values=;;;;;;;;;;;;;;;;;""",hp2.3.flac,,,,,,,,,,,,,,,,,,,,,,,choice 3,,,,,,,,,,,,,,,,,,,hp2.3.flac,,,,,yes,,,2022-03-16T17:22:52.000Z,389621,group_8,436701,Prediction2/Open3,1,2022-03-16T16:42:06.000Z,,,,not measured,,True
6,HP_Screen,2,imported_HP Trials,4,4,,,,,,,1,,,,,,,,,,,,,,0.0,,,"""times=;;;;;;;;;;;;;;;;;---values=;;;;;;;;;;;;;;;;;""",hp1.3.flac,,,,,,,,,,,,,,,,,,,,,,,choice 3,,,,,,,,,,,,,,,,,,,hp1.3.flac,,,,,yes,,,2022-03-16T17:22:52.000Z,389621,group_8,436701,Prediction2/Open3,1,2022-03-16T16:42:06.000Z,,,,not measured,,True
6,HP_Screen,2,imported_HP Trials,5,3,,,,,,,1,,,,,,,,,,,,,,0.0,,,"""times=;;;;;;;;;;;;;;;;;---values=;;;;;;;;;;;;;;;;;""",hp6.2.flac,,,,,,,,,,,,,,,,,,,,,,,choice 2,,,,,,,,,,,,,,,,,,,hp6.2.flac,,,,,yes,,,2022-03-16T17:22:52.000Z,389621,group_8,436701,Prediction2/Open3,1,2022-03-16T16:42:06.000Z,,,,not measured,,True
6,HP_Screen,2,imported_HP Trials,6,5,,,,,,,1,,,,,,,,,,,,,,0.0,,,"""times=;;;;;;;;;;;;;;;;;---values=;;;;;;;;;;;;;;;;;""",hp5.1.flac,,,,,,,,,,,,,,,,,,,,,,,choice 1,,,,,,,,,,,,,,,,,,,hp5.1.flac,,,,,yes,,,2022-03-16T17:22:52.000Z,389621,group_8,436701,Prediction2/Open3,1,2022-03-16T16:42:06.000Z,,,,not measured,,True
6,HP_Screen,1,imported_HP Instructions,1,1,,,,,,,1,,,,,,,,,,,,,,,1.0,,,,,,,,,,,,,,,,,,,,,,,,,,,,,,,,,,,,,,,,,,,,,,,,,,yes,,,2022-03-16T17:22:52.000Z,389621,group_8,436701,Prediction2/Open3,1,2022-03-16T16:42:06.000Z,,,,not measured,,True
4,GenInstructPredOpen,1,InstructionsPredOpen,1,1,,,,,,,1,,,,,,,,,,,,,,,,,,,,,,,,,,,,,,,,,,,,,,,,,,,,,,,,,,,,,,,,,,,,,,,,,yes,,,2022-03-16T17:22:52.000Z,389621,group_8,436701,Prediction2/Open3,1,2022-03-16T16:42:06.000Z,,,,not measured,,True
2,Consent,1,Consent,1,1,,,,,,,1,,,,,,,,,,,,,,,,,,,,,,,,,,,,,,,,,,,,,,,,,,,,,,,,,,,,,,,,,,,,,,,,,yes,,,2022-03-16T17:22:52.000Z,389621,group_8,436701,Prediction2/Open3,1,2022-03-16T16:42:06.000Z,,,,not measured,,True
