Block_Nr,Block_Name,Task_Nr,Task_Name,Trial_Nr,Trial_Id,ab_pitch,age_range,answer,best_instru,choice,clip,Condition_Id,conditions,consent,correct_incorrect_m_2,correct_incorrect_m_3,correct_incorrect_mem_1,correct_incorrect_p_1,correct_incorrect_p_2,correct_incorrect_p_3,correct_incorrect_practice_m,correct_incorrect_practice_p,correctCount,decision,earworm,errorCount,exampleCount,familiarity,fileArray,filePick,Frequenc,genre,genre_3,genre_4,hour,imagery,imagery_2,Instr,isCorrect,listen_time,music_theory,name_instru,nrErrors,num_instru,participant_choice,participant_choice_2,participant_choice2,participant_spacePress,participant_spacePress2,played_notplayed,practice_catseg_scramble,prolific_ID,prolific_ID_copy_30d1,relative_pitch,response,response_seg,response_seg2,response_Time2,responseTime,retestCount,scramble_cat_1,scramble_cat_3,scramble_cat_4,scramble_catseg_4,scramble_level,scramble_m_1,scramble_m_2,scramble_m_3,scramble_open_3,scramble_p_1,scramble_p_2,scramble_p_3,set1response,soundName,strategy,time_atClipStart1,toneSequence,always_fullscreen,completed,crowdsourcing_code,crowdsourcing_subj_id,end_time,exp_subject_id,group_name,rec_session_id,session_name,session_nr,start_time,subj_counter_global,subj_counter_per_group,subject_code,time_delay_offset,time_measure_std,unlocked
13,Post-Survey,1,Post-Survey,1,1,,,,,,,1,,,,,,,,,,,,,,,,1,,,,,,,,,,,,,,,,,,,,,,option_1,,,,,,,,,,,,,,,,,,,,,,,,,I don't think I had any particular strategies. I just went with my gut feeling of when I felt like the music had a change.,,,,yes,,,2022-09-08T02:54:52.000Z,484352,group_9,553564,Prediction3/Open2,1,2022-09-08T02:16:03.000Z,,,,not measured,,TRUE
2,Consent,1,Consent,1,1,,,,,,,1,,,,,,,,,,,,,,,,,,,,,,,,,,,,,,,,,,,,,,,,6090578fb2299eacaec32b7a,,,,,,,,,,,,,,,,,,,,,,,,,,,yes,,,2022-09-08T02:54:52.000Z,484352,group_9,553564,Prediction3/Open2,1,2022-09-08T02:16:03.000Z,,,,not measured,,TRUE
4,GenInstructPredOpen,1,InstructionsPredOpen,1,1,,,,,,,1,,,,,,,,,,,,,,,,,,,,,,,,,,,,,,,,,,,,,,,,,,,,,,,,,,,,,,,,,,,,,,,,,,,yes,,,2022-09-08T02:54:52.000Z,484352,group_9,553564,Prediction3/Open2,1,2022-09-08T02:16:03.000Z,,,,not measured,,TRUE
6,HP_Screen,1,imported_HP Instructions,1,1,,,,,,,1,,,,,,,,,,,,,,,2,,,,,,,,,,,,,,,,,,,,,,,,,,,,,,,,,,,,,,,,,,,,,,,,,,,,yes,,,2022-09-08T02:54:52.000Z,484352,group_9,553564,Prediction3/Open2,1,2022-09-08T02:16:03.000Z,,,,not measured,,TRUE
6,HP_Screen,2,imported_HP Trials,1,1,,,,,,,1,,,,,,,,,,,,,,0,,,"""times=;;;;;;;;;;;;;;;;;---values=;;;;;;;;;;;;;;;;;""",hp3.2.flac,,,,,,,,,,,,,,,,,,,,,,,,,choice 2,,,,,,,,,,,,,,,,,,,hp3.2.flac,,,,,yes,,,2022-09-08T02:54:52.000Z,484352,group_9,553564,Prediction3/Open2,1,2022-09-08T02:16:03.000Z,,,,not measured,,TRUE
6,HP_Screen,2,imported_HP Trials,2,3,,,,,,,1,,,,,,,,,,,,,,0,,,"""times=;;;;;;;;;;;;;;;;;---values=;;;;;;;;;;;;;;;;;""",hp6.1.flac,,,,,,,,,,,,,,,,,,,,,,,,,choice 1,,,,,,,,,,,,,,,,,,,hp6.1.flac,,,,,yes,,,2022-09-08T02:54:52.000Z,484352,group_9,553564,Prediction3/Open2,1,2022-09-08T02:16:03.000Z,,,,not measured,,TRUE
6,HP_Screen,2,imported_HP Trials,3,2,,,,,,,1,,,,,,,,,,,,,,0,,,"""times=;;;;;;;;;;;;;;;;;---values=;;;;;;;;;;;;;;;;;""",hp3.1.flac,,,,,,,,,,,,,,,,,,,,,,,,,choice 1,,,,,,,,,,,,,,,,,,,hp3.1.flac,,,,,yes,,,2022-09-08T02:54:52.000Z,484352,group_9,553564,Prediction3/Open2,1,2022-09-08T02:16:03.000Z,,,,not measured,,TRUE
6,HP_Screen,2,imported_HP Trials,4,5,,,,,,,1,,,,,,,,,,,,,,0,,,"""times=;;;;;;;;;;;;;;;;;---values=;;;;;;;;;;;;;;;;;""",hp3.3.flac,,,,,,,,,,,,,,,,,,,,,,,,,choice 3,,,,,,,,,,,,,,,,,,,hp3.3.flac,,,,,yes,,,2022-09-08T02:54:52.000Z,484352,group_9,553564,Prediction3/Open2,1,2022-09-08T02:16:03.000Z,,,,not measured,,TRUE
6,HP_Screen,2,imported_HP Trials,5,6,,,,,,,1,,,,,,,,,,,,,,0,,,"""times=;;;;;;;;;;;;;;;;;---values=;;;;;;;;;;;;;;;;;""",hp6.2.flac,,,,,,,,,,,,,,,,,,,,,,,,,choice 2,,,,,,,,,,,,,,,,,,,hp6.2.flac,,,,,yes,,,2022-09-08T02:54:52.000Z,484352,group_9,553564,Prediction3/Open2,1,2022-09-08T02:16:03.000Z,,,,not measured,,TRUE
6,HP_Screen,2,imported_HP Trials,6,4,,,,,,,1,,,,,,,,,,,,,,0,,,"""times=;;;;;;;;;;;;;;;;;---values=;;;;;;;;;;;;;;;;;""",hp1.3.flac,,,,,,,,,,,,,,,,,,,,,,,,,choice 3,,,,,,,,,,,,,,,,,,,hp1.3.flac,,,,,yes,,,2022-09-08T02:54:52.000Z,484352,group_9,553564,Prediction3/Open2,1,2022-09-08T02:16:03.000Z,,,,not measured,,TRUE
6,HP_Screen,3,imported_HP Evaluation,1,1,,,,,,,1,,,,,,,,,,,,,,0,,,,,,,,,,,,,,,,,,,,,,,,,,,,,,,,,,,,,,,,,,,,,,,,,,,,,yes,,,2022-09-08T02:54:52.000Z,484352,group_9,553564,Prediction3/Open2,1,2022-09-08T02:16:03.000Z,,,,not measured,,TRUE
7,AP_Screen,1,imported_AP_instruction,1,1,,,,,,,1,,,,,,,,,,,,,,,,,,,,,,,,,,,,,,,,,,,,,,,,,,,,,,,,,,,,,,,,,,,,,,,,,,,yes,,,2022-09-08T02:54:52.000Z,484352,group_9,553564,Prediction3/Open2,1,2022-09-08T02:16:03.000Z,,,,not measured,,TRUE
7,AP_Screen,3,imported_AP_eval,1,1,,,,,,,1,,,,,,,,,,,,,,,,,,,,,,,,,,,,,,,0,,,,,,,,,,,,,,,,,,,,,,,,,,,,,,,,,,,,yes,,,2022-09-08T02:54:52.000Z,484352,group_9,553564,Prediction3/Open2,1,2022-09-08T02:16:03.000Z,,,,not measured,,TRUE
9,Prediction3,1,Instructions_Prediction,1,1,,,,,,,1,,,,,,,,,,,,,,,,,,,,,,,,,,,,,,,,,,,,,,,,,,,,,,,,,,,,,,,,,,,,,,,,,,,yes,,,2022-09-08T02:54:52.000Z,484352,group_9,553564,Prediction3/Open2,1,2022-09-08T02:16:03.000Z,,,,not measured,,TRUE
7,AP_Screen,2,imported_AP_headphone test,1,4,,,,,,,4,,,,,,,,,,,,one,,,,,,,,,,,,,,,TRUE,,,,0,,,,,,,,,,,,,,,,,,,,,,,,,,,,,,,,,,S_I_O,,yes,,,2022-09-08T02:54:52.000Z,484352,group_9,553564,Prediction3/Open2,1,2022-09-08T02:16:03.000Z,,,,not measured,,TRUE
7,AP_Screen,2,imported_AP_headphone test,2,6,,,,,,,6,,,,,,,,,,,,three,,,,,,,,,,,,,,,TRUE,,,,0,,,,,,,,,,,,,,,,,,,,,,,,,,,,,,,,,,O_I_S,,yes,,,2022-09-08T02:54:52.000Z,484352,group_9,553564,Prediction3/Open2,1,2022-09-08T02:16:03.000Z,,,,not measured,,TRUE
7,AP_Screen,2,imported_AP_headphone test,3,3,,,,,,,3,,,,,,,,,,,,one,,,,,,,,,,,,,,,TRUE,,,,0,,,,,,,,,,,,,,,,,,,,,,,,,,,,,,,,,,S_O_I,,yes,,,2022-09-08T02:54:52.000Z,484352,group_9,553564,Prediction3/Open2,1,2022-09-08T02:16:03.000Z,,,,not measured,,TRUE
7,AP_Screen,2,imported_AP_headphone test,4,1,,,,,,,1,,,,,,,,,,,,three,,,,,,,,,,,,,,,TRUE,,,,0,,,,,,,,,,,,,,,,,,,,,,,,,,,,,,,,,,I_O_S,,yes,,,2022-09-08T02:54:52.000Z,484352,group_9,553564,Prediction3/Open2,1,2022-09-08T02:16:03.000Z,,,,not measured,,TRUE
7,AP_Screen,2,imported_AP_headphone test,5,5,,,,,,,5,,,,,,,,,,,,two,,,,,,,,,,,,,,,TRUE,,,,0,,,,,,,,,,,,,,,,,,,,,,,,,,,,,,,,,,O_S_I,,yes,,,2022-09-08T02:54:52.000Z,484352,group_9,553564,Prediction3/Open2,1,2022-09-08T02:16:03.000Z,,,,not measured,,TRUE
7,AP_Screen,2,imported_AP_headphone test,6,2,,,,,,,2,,,,,,,,,,,,two,,,,,,,,,,,,,,,TRUE,,,,0,,,,,,,,,,,,,,,,,,,,,,,,,,,,,,,,,,I_S_O,,yes,,,2022-09-08T02:54:52.000Z,484352,group_9,553564,Prediction3/Open2,1,2022-09-08T02:16:03.000Z,,,,not measured,,TRUE
9,Prediction3,2,Practice_Prediction,1,4,,,,,First,,2,,,,,,,,,,incorrect_correct,,,,,,,,,,,,,,,,,,,,,,,,,,,,,,,,,Incorrect,,,,3596,,,,,,,,,,,,,,,,,,,,yes,,,2022-09-08T02:54:52.000Z,484352,group_9,553564,Prediction3/Open2,1,2022-09-08T02:16:03.000Z,,,,not measured,,TRUE
9,Prediction3,2,Practice_Prediction,2,3,,,,,First,,1,,,,,,,,,,correct_incorrect,,,,,,,,,,,,,,,,,,,,,,,,,,,,,,,,,Correct,,,,2225,,,,,,,,,,,,,,,,,,,,yes,,,2022-09-08T02:54:52.000Z,484352,group_9,553564,Prediction3/Open2,1,2022-09-08T02:16:03.000Z,,,,not measured,,TRUE
9,Prediction3,2,Practice_Prediction,3,2,,,,,Second,,1,,,,,,,,,,correct_incorrect,,,,,,,,,,,,,,,,,,,,,,,,,,,,,,,,,Incorrect,,,,1025,,,,,,,,,,,,,,,,,,,,yes,,,2022-09-08T02:54:52.000Z,484352,group_9,553564,Prediction3/Open2,1,2022-09-08T02:16:03.000Z,,,,not measured,,TRUE
9,Prediction3,3,Ready?,1,1,,,,,,,1,,,,,,,,,,,,,,,,,,,,,,,,,,,,,,,,,,,,,,,,,,,,,,,,,,,,,,,,,,,,,,,,,,,yes,,,2022-09-08T02:54:52.000Z,484352,group_9,553564,Prediction3/Open2,1,2022-09-08T02:16:03.000Z,,,,not measured,,TRUE
9,Prediction3,4,Prediction_3,1,46,,,,,Second,4_1B_prediction_5.mp3,5,,,,,,,,correct_left,,,,,,,,,,,,,,,,,,,,,,,,,,,,,,,,,,,Incorrect,,,,855,,,,,,,,,,,,,1B,,,,,,,yes,,,2022-09-08T02:54:52.000Z,484352,group_9,553564,Prediction3/Open2,1,2022-09-08T02:16:03.000Z,,,,not measured,,TRUE
9,Prediction3,4,Prediction_3,2,19,,,,,Second,4_8B_prediction_8.mp3,2,,,,,,,,incorrect_left,,,,,,,,,,,,,,,,,,,,,,,,,,,,,,,,,,,Correct,,,,874,,,,,,,,,,,,,8B,,,,,,,yes,,,2022-09-08T02:54:52.000Z,484352,group_9,553564,Prediction3/Open2,1,2022-09-08T02:16:03.000Z,,,,not measured,,TRUE
9,Prediction3,4,Prediction_3,3,32,,,,,Second,3_2B_prediction_7.mp3,4,,,,,,,,incorrect_left,,,,,,,,,,,,,,,,,,,,,,,,,,,,,,,,,,,Correct,,,,711,,,,,,,,,,,,,2B,,,,,,,yes,,,2022-09-08T02:54:52.000Z,484352,group_9,553564,Prediction3/Open2,1,2022-09-08T02:16:03.000Z,,,,not measured,,TRUE
9,Prediction3,4,Prediction_3,4,60,,,,,First,4_1B_prediction_9.mp3,6,,,,,,,,incorrect_left,,,,,,,,,,,,,,,,,,,,,,,,,,,,,,,,,,,Incorrect,,,,693,,,,,,,,,,,,,1B,,,,,,,yes,,,2022-09-08T02:54:52.000Z,484352,group_9,553564,Prediction3/Open2,1,2022-09-08T02:16:03.000Z,,,,not measured,,TRUE
9,Prediction3,4,Prediction_3,5,53,,,,,Second,3_1B_prediction_8.mp3,6,,,,,,,,incorrect_left,,,,,,,,,,,,,,,,,,,,,,,,,,,,,,,,,,,Correct,,,,646,,,,,,,,,,,,,1B,,,,,,,yes,,,2022-09-08T02:54:52.000Z,484352,group_9,553564,Prediction3/Open2,1,2022-09-08T02:16:03.000Z,,,,not measured,,TRUE
9,Prediction3,4,Prediction_3,6,54,,,,,Second,3_1B_prediction_9.mp3,6,,,,,,,,incorrect_left,,,,,,,,,,,,,,,,,,,,,,,,,,,,,,,,,,,Correct,,,,602,,,,,,,,,,,,,1B,,,,,,,yes,,,2022-09-08T02:54:52.000Z,484352,group_9,553564,Prediction3/Open2,1,2022-09-08T02:16:03.000Z,,,,not measured,,TRUE
9,Prediction3,4,Prediction_3,7,6,,,,,First,4_8B_prediction_5.mp3,1,,,,,,,,correct_left,,,,,,,,,,,,,,,,,,,,,,,,,,,,,,,,,,,Correct,,,,992,,,,,,,,,,,,,8B,,,,,,,yes,,,2022-09-08T02:54:52.000Z,484352,group_9,553564,Prediction3/Open2,1,2022-09-08T02:16:03.000Z,,,,not measured,,TRUE
9,Prediction3,4,Prediction_3,8,34,,,,,First,3_2B_prediction_9.mp3,4,,,,,,,,incorrect_left,,,,,,,,,,,,,,,,,,,,,,,,,,,,,,,,,,,Incorrect,,,,688,,,,,,,,,,,,,2B,,,,,,,yes,,,2022-09-08T02:54:52.000Z,484352,group_9,553564,Prediction3/Open2,1,2022-09-08T02:16:03.000Z,,,,not measured,,TRUE
9,Prediction3,4,Prediction_3,9,52,,,,,,3_1B_prediction_7.mp3,6,,,,,,,,incorrect_left,,,,,,,,,,,,,,,,,,,,,,,,,,,,,,,,,,,,,,,,,,,,,,,,,,,,1B,,,,,,,yes,,,2022-09-08T02:54:52.000Z,484352,group_9,553564,Prediction3/Open2,1,2022-09-08T02:16:03.000Z,,,,not measured,,TRUE
9,Prediction3,4,Prediction_3,10,25,,,,,First,3_2B_prediction_10.mp3,3,,,,,,,,correct_left,,,,,,,,,,,,,,,,,,,,,,,,,,,,,,,,,,,Correct,,,,752,,,,,,,,,,,,,2B,,,,,,,yes,,,2022-09-08T02:54:52.000Z,484352,group_9,553564,Prediction3/Open2,1,2022-09-08T02:16:03.000Z,,,,not measured,,TRUE
9,Prediction3,4,Prediction_3,11,58,,,,,Second,4_1B_prediction_7.mp3,6,,,,,,,,incorrect_left,,,,,,,,,,,,,,,,,,,,,,,,,,,,,,,,,,,Correct,,,,1104,,,,,,,,,,,,,1B,,,,,,,yes,,,2022-09-08T02:54:52.000Z,484352,group_9,553564,Prediction3/Open2,1,2022-09-08T02:16:03.000Z,,,,not measured,,TRUE
9,Prediction3,4,Prediction_3,12,55,,,,,First,3_1B_prediction_10.mp3,6,,,,,,,,incorrect_left,,,,,,,,,,,,,,,,,,,,,,,,,,,,,,,,,,,Incorrect,,,,746,,,,,,,,,,,,,1B,,,,,,,yes,,,2022-09-08T02:54:52.000Z,484352,group_9,553564,Prediction3/Open2,1,2022-09-08T02:16:03.000Z,,,,not measured,,TRUE
9,Prediction3,4,Prediction_3,13,11,,,,,Second,3_8B_prediction_6.mp3,2,,,,,,,,incorrect_left,,,,,,,,,,,,,,,,,,,,,,,,,,,,,,,,,,,Correct,,,,515,,,,,,,,,,,,,8B,,,,,,,yes,,,2022-09-08T02:54:52.000Z,484352,group_9,553564,Prediction3/Open2,1,2022-09-08T02:16:03.000Z,,,,not measured,,TRUE
9,Prediction3,4,Prediction_3,14,30,,,,,Second,4_2B_prediction_9.mp3,3,,,,,,,,correct_left,,,,,,,,,,,,,,,,,,,,,,,,,,,,,,,,,,,Incorrect,,,,443,,,,,,,,,,,,,2B,,,,,,,yes,,,2022-09-08T02:54:52.000Z,484352,group_9,553564,Prediction3/Open2,1,2022-09-08T02:16:03.000Z,,,,not measured,,TRUE
9,Prediction3,4,Prediction_3,15,10,,,,,First,4_8B_prediction_9.mp3,1,,,,,,,,correct_left,,,,,,,,,,,,,,,,,,,,,,,,,,,,,,,,,,,Correct,,,,2800,,,,,,,,,,,,,8B,,,,,,,yes,,,2022-09-08T02:54:52.000Z,484352,group_9,553564,Prediction3/Open2,1,2022-09-08T02:16:03.000Z,,,,not measured,,TRUE
9,Prediction3,4,Prediction_3,16,49,,,,,First,4_1B_prediction_8.mp3,5,,,,,,,,correct_left,,,,,,,,,,,,,,,,,,,,,,,,,,,,,,,,,,,Correct,,,,465,,,,,,,,,,,,,1B,,,,,,,yes,,,2022-09-08T02:54:52.000Z,484352,group_9,553564,Prediction3/Open2,1,2022-09-08T02:16:03.000Z,,,,not measured,,TRUE
9,Prediction3,4,Prediction_3,17,23,,,,,Second,3_2B_prediction_8.mp3,3,,,,,,,,correct_left,,,,,,,,,,,,,,,,,,,,,,,,,,,,,,,,,,,Incorrect,,,,586,,,,,,,,,,,,,2B,,,,,,,yes,,,2022-09-08T02:54:52.000Z,484352,group_9,553564,Prediction3/Open2,1,2022-09-08T02:16:03.000Z,,,,not measured,,TRUE
9,Prediction3,4,Prediction_3,18,4,,,,,First,3_8B_prediction_9.mp3,1,,,,,,,,correct_left,,,,,,,,,,,,,,,,,,,,,,,,,,,,,,,,,,,Correct,,,,516,,,,,,,,,,,,,8B,,,,,,,yes,,,2022-09-08T02:54:52.000Z,484352,group_9,553564,Prediction3/Open2,1,2022-09-08T02:16:03.000Z,,,,not measured,,TRUE
9,Prediction3,4,Prediction_3,19,3,,,,,First,3_8B_prediction_8.mp3,1,,,,,,,,correct_left,,,,,,,,,,,,,,,,,,,,,,,,,,,,,,,,,,,Correct,,,,548,,,,,,,,,,,,,8B,,,,,,,yes,,,2022-09-08T02:54:52.000Z,484352,group_9,553564,Prediction3/Open2,1,2022-09-08T02:16:03.000Z,,,,not measured,,TRUE
9,Prediction3,4,Prediction_3,20,28,,,,,Second,4_2B_prediction_7.mp3,3,,,,,,,,correct_left,,,,,,,,,,,,,,,,,,,,,,,,,,,,,,,,,,,Incorrect,,,,446,,,,,,,,,,,,,2B,,,,,,,yes,,,2022-09-08T02:54:52.000Z,484352,group_9,553564,Prediction3/Open2,1,2022-09-08T02:16:03.000Z,,,,not measured,,TRUE
9,Prediction3,4,Prediction_3,21,18,,,,,Second,4_8B_prediction_7.mp3,2,,,,,,,,incorrect_left,,,,,,,,,,,,,,,,,,,,,,,,,,,,,,,,,,,Correct,,,,489,,,,,,,,,,,,,8B,,,,,,,yes,,,2022-09-08T02:54:52.000Z,484352,group_9,553564,Prediction3/Open2,1,2022-09-08T02:16:03.000Z,,,,not measured,,TRUE
9,Prediction3,4,Prediction_3,22,26,,,,,First,4_2B_prediction_5.mp3,3,,,,,,,,correct_left,,,,,,,,,,,,,,,,,,,,,,,,,,,,,,,,,,,Correct,,,,575,,,,,,,,,,,,,2B,,,,,,,yes,,,2022-09-08T02:54:52.000Z,484352,group_9,553564,Prediction3/Open2,1,2022-09-08T02:16:03.000Z,,,,not measured,,TRUE
9,Prediction3,4,Prediction_3,23,29,,,,,Second,4_2B_prediction_8.mp3,3,,,,,,,,correct_left,,,,,,,,,,,,,,,,,,,,,,,,,,,,,,,,,,,Incorrect,,,,928,,,,,,,,,,,,,2B,,,,,,,yes,,,2022-09-08T02:54:52.000Z,484352,group_9,553564,Prediction3/Open2,1,2022-09-08T02:16:03.000Z,,,,not measured,,TRUE
9,Prediction3,4,Prediction_3,24,15,,,,,Second,3_8B_prediction_2.mp3,2,,,,,,,,incorrect_left,,,,,,,,,,,,,,,,,,,,,,,,,,,,,,,,,,,Correct,,,,2114,,,,,,,,,,,,,8B,,,,,,,yes,,,2022-09-08T02:54:52.000Z,484352,group_9,553564,Prediction3/Open2,1,2022-09-08T02:16:03.000Z,,,,not measured,,TRUE
9,Prediction3,4,Prediction_3,25,21,,,,,First,3_2B_prediction_6.mp3,3,,,,,,,,correct_left,,,,,,,,,,,,,,,,,,,,,,,,,,,,,,,,,,,Correct,,,,3661,,,,,,,,,,,,,2B,,,,,,,yes,,,2022-09-08T02:54:52.000Z,484352,group_9,553564,Prediction3/Open2,1,2022-09-08T02:16:03.000Z,,,,not measured,,TRUE
9,Prediction3,4,Prediction_3,26,37,,,,,Second,4_2B_prediction_6.mp3,4,,,,,,,,incorrect_left,,,,,,,,,,,,,,,,,,,,,,,,,,,,,,,,,,,Correct,,,,533,,,,,,,,,,,,,2B,,,,,,,yes,,,2022-09-08T02:54:52.000Z,484352,group_9,553564,Prediction3/Open2,1,2022-09-08T02:16:03.000Z,,,,not measured,,TRUE
9,Prediction3,4,Prediction_3,27,2,,,,,Second,3_8B_prediction_7.mp3,1,,,,,,,,correct_left,,,,,,,,,,,,,,,,,,,,,,,,,,,,,,,,,,,Incorrect,,,,584,,,,,,,,,,,,,8B,,,,,,,yes,,,2022-09-08T02:54:52.000Z,484352,group_9,553564,Prediction3/Open2,1,2022-09-08T02:16:03.000Z,,,,not measured,,TRUE
9,Prediction3,4,Prediction_3,28,57,,,,,First,4_1B_prediction_6.mp3,6,,,,,,,,incorrect_left,,,,,,,,,,,,,,,,,,,,,,,,,,,,,,,,,,,Incorrect,,,,730,,,,,,,,,,,,,1B,,,,,,,yes,,,2022-09-08T02:54:52.000Z,484352,group_9,553564,Prediction3/Open2,1,2022-09-08T02:16:03.000Z,,,,not measured,,TRUE
9,Prediction3,4,Prediction_3,29,17,,,,,Second,4_8B_prediction_6.mp3,2,,,,,,,,incorrect_left,,,,,,,,,,,,,,,,,,,,,,,,,,,,,,,,,,,Correct,,,,455,,,,,,,,,,,,,8B,,,,,,,yes,,,2022-09-08T02:54:52.000Z,484352,group_9,553564,Prediction3/Open2,1,2022-09-08T02:16:03.000Z,,,,not measured,,TRUE
9,Prediction3,4,Prediction_3,30,41,,,,,Second,3_1B_prediction_6.mp3,5,,,,,,,,correct_left,,,,,,,,,,,,,,,,,,,,,,,,,,,,,,,,,,,Incorrect,,,,3493,,,,,,,,,,,,,1B,,,,,,,yes,,,2022-09-08T02:54:52.000Z,484352,group_9,553564,Prediction3/Open2,1,2022-09-08T02:16:03.000Z,,,,not measured,,TRUE
11,OpenEndedSeg_2,1,Instructions_Open,1,1,,,,,,,1,,,,,,,,,,,,,,,,,,,,,,,,,,,,,,,,,,,,,,,,,,,,,,,,,,,,,,,,,,,,,,,,,,,yes,,,2022-09-08T02:54:52.000Z,484352,group_9,553564,Prediction3/Open2,1,2022-09-08T02:16:03.000Z,,,,not measured,,TRUE
11,OpenEndedSeg_2,2,Practice_OpenEnded,1,1,,,,,,,1,,,,,,,,,,,,,,,,,,,,,,,,,,,,,,,,,,,,,"""times=1662604543643;1662604551873;1662604556686;1662604571585;1662604580852;1662604585785;1662604593941;1662604601326---values=12737;20967;25780;40679;49946;54879;63035;70420""",,,,,,,,,,,,,,,,,,,,,,,,,,,,,,yes,,,2022-09-08T02:54:52.000Z,484352,group_9,553564,Prediction3/Open2,1,2022-09-08T02:16:03.000Z,,,,not measured,,TRUE
11,OpenEndedSeg_2,3,Ready?,1,1,,,,,,,1,,,,,,,,,,,,,,,,,,,,,,,,,,,,,,,,,,,,,,,,,,,,,,,,,,,,,,,,,,,,,,,,,,,yes,,,2022-09-08T02:54:52.000Z,484352,group_9,553564,Prediction3/Open2,1,2022-09-08T02:16:03.000Z,,,,not measured,,TRUE
11,OpenEndedSeg_2,4,OpenEndedSeg_2,1,5,,,,,,,2,,,,,,,,,,,,,,,,,,,,,,,,,,,,,,,,,,,,"""times=1662604629647;1662604632724;1662604642410;1662604648936;1662604658382;1662604663965---values=14112;17189;26875;33401;42847;48430""","""times=1662604615525;1662604695349;1662604697067;1662604701652;1662604709296;1662604716096;1662604725638;1662604732295---values=;13424;15142;19727;27371;34171;43713;50370""",,,,,,,,,,,,,,,,8B,,,,,,,,,,,,,,yes,,,2022-09-08T02:54:52.000Z,484352,group_9,553564,Prediction3/Open2,1,2022-09-08T02:16:03.000Z,,,,not measured,,TRUE
11,OpenEndedSeg_2,4,OpenEndedSeg_2,2,16,,,,,,,4,,,,,,,,,,,,,,,,,,,,,,,,,,,,,,,,,,,,"""times=1662604748844;1662604756284;1662604760307;1662604769579;1662604779443;1662604787378;1662604792031;1662604799466;1662604806990---values=;7423;11446;20718;30582;38517;43170;50605;58129""","""times=1662604748844;1662604818379;1662604823862;1662604838973;1662604846706;1662604850674;1662604853360;1662604860195;1662604867979---values=;8731;14214;29325;37058;41026;43712;50547;58331""",,,,,,,,,,,,,,,,1B,,,,,,,,,,,,,,yes,,,2022-09-08T02:54:52.000Z,484352,group_9,553564,Prediction3/Open2,1,2022-09-08T02:16:03.000Z,,,,not measured,,TRUE
11,OpenEndedSeg_2,4,OpenEndedSeg_2,3,14,,,,,,,4,,,,,,,,,,,,,,,,,,,,,,,,,,,,,,,,,,,,"""times=1662604870928;1662604876351;1662604878114;1662604890200;1662604897720;1662604905030;1662604910487;1662604916429;1662604928736---values=;5406;7169;19255;26775;34085;39542;45484;57791""","""times=1662604870928;1662604940632;1662604951006;1662604953525;1662604958967;1662604965030;1662604971253;1662604978868;1662604982983;1662604989949---values=;8803;19177;21695;27138;33201;39424;47039;51154;58120""",,,,,,,,,,,,,,,,1B,,,,,,,,,,,,,,yes,,,2022-09-08T02:54:52.000Z,484352,group_9,553564,Prediction3/Open2,1,2022-09-08T02:16:03.000Z,,,,not measured,,TRUE
11,OpenEndedSeg_2,4,OpenEndedSeg_2,4,10,,,,,,,3,,,,,,,,,,,,,,,,,,,,,,,,,,,,,,,,,,,,"""times=1662604993189;1662604998595;1662605003261;1662605010448;1662605014987;1662605019235;1662605022828;1662605024326;1662605033894;1662605039288;1662605048507;1662605054210---values=;5386;10052;17239;21778;26026;29619;31117;40685;46079;55298;61001""","""times=1662604993189;1662605060576;1662605066561;1662605072790;1662605077687;1662605084551;1662605089580;1662605098307;1662605107520;1662605111973---values=;4632;10617;16846;21743;28607;33636;42363;51576;56029""",,,,,,,,,,,,,,,,2B,,,,,,,,,,,,,,yes,,,2022-09-08T02:54:52.000Z,484352,group_9,553564,Prediction3/Open2,1,2022-09-08T02:16:03.000Z,,,,not measured,,TRUE
11,OpenEndedSeg_2,4,OpenEndedSeg_2,5,4,,,,,,,1,,,,,,,,,,,,,,,,,,,,,,,,,,,,,,,,,,,,"""times=1662605119165;1662605121387;1662605148806;1662605165562;1662605173188---values=;2200;29619;46375;54001""","""times=1662605119165;1662605211256;1662605221823;1662605236557---values=;29468;40034;54769""",,,,,,,,,,,,,,,,intact,,,,,,,,,,,,,,yes,,,2022-09-08T02:54:52.000Z,484352,group_9,553564,Prediction3/Open2,1,2022-09-08T02:16:03.000Z,,,,not measured,,TRUE
11,OpenEndedSeg_2,4,OpenEndedSeg_2,6,1,,,,,,,1,,,,,,,,,,,,,,,,,,,,,,,,,,,,,,,,,,,,"""times=1662605244865;1662605258277;1662605262594;1662605277647;1662605280988;1662605294669;1662605309734---values=;13389;17706;32759;36100;49781;64846""","""times=1662605244865;1662605329478;1662605338715;1662605343902;1662605349427;1662605356865;1662605378059---values=;16049;25286;30473;35998;43436;64630""",,,,,,,,,,,,,,,,intact,,,,,,,,,,,,,,yes,,,2022-09-08T02:54:52.000Z,484352,group_9,553564,Prediction3/Open2,1,2022-09-08T02:16:03.000Z,,,,not measured,,TRUE
11,OpenEndedSeg_2,4,OpenEndedSeg_2,7,9,,,,,,,3,,,,,,,,,,,,,,,,,,,,,,,,,,,,,,,,,,,,"""times=1662605382448;1662605388455;1662605394997;1662605396415;1662605405910;1662605414678;1662605423080;1662605432077---values=;5977;12519;13937;23432;32200;40602;49599""","""times=1662605382448;1662605446059;1662605453827;1662605458735;1662605465007;1662605471733;1662605478731;1662605483413;1662605490100---values=;4811;12579;17487;23759;30485;37483;42165;48852""",,,,,,,,,,,,,,,,2B,,,,,,,,,,,,,,yes,,,2022-09-08T02:54:52.000Z,484352,group_9,553564,Prediction3/Open2,1,2022-09-08T02:16:03.000Z,,,,not measured,,TRUE
11,OpenEndedSeg_2,4,OpenEndedSeg_2,8,6,,,,,,,2,,,,,,,,,,,,,,,,,,,,,,,,,,,,,,,,,,,,"""times=1662605500506;1662605514757;1662605518544;1662605524788;1662605532098;1662605533303;1662605539345;1662605542822;1662605547137;1662605551153---values=;14249;18036;24280;31590;32795;38837;42314;46629;50645""","""times=1662605500506;1662605580436;1662605584641;1662605597834;1662605599985;1662605608318;1662605616658---values=;13071;17276;30469;32620;40953;49293""",,,,,,,,,,,,,,,,8B,,,,,,,,,,,,,,yes,,,2022-09-08T02:54:52.000Z,484352,group_9,553564,Prediction3/Open2,1,2022-09-08T02:16:03.000Z,,,,not measured,,TRUE