Block_Nr,Block_Name,Task_Nr,Task_Name,Trial_Nr,Trial_Id,ab_pitch,age_range,answer,best_instru,choice,clip,Condition_Id,conditions,consent,correct_incorrect_m_2,correct_incorrect_m_3,correct_incorrect_mem_1,correct_incorrect_p_1,correct_incorrect_p_2,correct_incorrect_p_3,correct_incorrect_practice_m,correct_incorrect_practice_p,correctCount,decision,earworm,errorCount,exampleCount,familiarity,fileArray,filePick,Frequenc,genre,genre_3,genre_4,hour,imagery,imagery_2,Instr,isCorrect,listen_time,music_theory,name_instru,nrErrors,num_instru,participant_choice,participant_choice_2,participant_choice2,participant_spacePress,participant_spacePress2,played_notplayed,practice_catseg_scramble,relative_pitch,response,response_seg,response_seg2,response_Time2,responseTime,retestCount,scramble_cat_1,scramble_cat_3,scramble_cat_4,scramble_catseg_4,scramble_level,scramble_m_1,scramble_m_2,scramble_m_3,scramble_open_3,scramble_p_1,scramble_p_2,scramble_p_3,set1response,soundName,strategy,time_atClipStart1,toneSequence,always_fullscreen,completed,crowdsourcing_code,crowdsourcing_subj_id,end_time,exp_subject_id,group_name,rec_session_id,session_name,session_nr,start_time,subj_counter_global,subj_counter_per_group,subject_code,time_delay_offset,time_measure_std,unlocked
13,Post-Survey,1,Post-Survey,1,1,No,piano: 10-15 guitar: 20-25 synthesizer: 25-30,,synthesizer,,,1,,,,,,,,,,,,,5.0,,,2.0,,,Occasionally,dream pop,ambient,exploratory,2-3 Days/Week,5.0,,2-3 Days/Week,,4-5 Days/Week,Occasionally,"Piano, guitar, synthesizer",,Weekly,,,,,,option_1,,Yes,,,,,,,,,,,,,,,,,,,,,I closed my eyes and just went with my feeling. Some might've been key changes or dramatic emphasises while others felt to me like big changes in the music.,,,,yes,,,2021-12-25T02:09:17.000Z,342257,group_9,378328,Prediction3/Open2,1,2021-12-25T01:21:23.000Z,,,,not measured,,True
11,OpenEndedSeg_2,4,OpenEndedSeg_2,1,8,,,,,,,2,,,,,,,,,,,,,,,,,,,,,,,,,,,,,,,,,,,,"""times=1640396888459;1640396897277;1640396902312;1640396913251;1640396926352;1640396940344;1640396945214---values=8267;17085;22120;33058;46160;60152;65022""","""times=1640396880169;1640396964403;1640396978318;1640396992967;1640397003418;1640397012372---values=;17046;30961;45610;56061;65015""",,,,,,,,,,,,,,8B,,,,,,,,,,,,,,yes,,,2021-12-25T02:09:17.000Z,342257,group_9,378328,Prediction3/Open2,1,2021-12-25T01:21:23.000Z,,,,not measured,,True
11,OpenEndedSeg_2,4,OpenEndedSeg_2,2,4,,,,,,,1,,,,,,,,,,,,,,,,,,,,,,,,,,,,,,,,,,,,"""times=1640397015041;1640397043194;1640397068459;1640397075827---values=;28153;53418;60786""","""times=1640397015041;1640397107277;1640397130619;1640397138534---values=;29594;52936;60851""",,,,,,,,,,,,,,intact,,,,,,,,,,,,,,yes,,,2021-12-25T02:09:17.000Z,342257,group_9,378328,Prediction3/Open2,1,2021-12-25T01:21:23.000Z,,,,not measured,,True
11,OpenEndedSeg_2,4,OpenEndedSeg_2,3,5,,,,,,,2,,,,,,,,,,,,,,,,,,,,,,,,,,,,,,,,,,,,"""times=1640397140805;1640397161347;1640397169872;1640397173436;1640397184372;1640397190370;1640397201016---values=;20474;28999;32563;43499;49497;60143""","""times=1640397140805;1640397221398;1640397240515;1640397250759;1640397255924;1640397271628---values=;14021;33138;43382;48547;64251""",,,,,,,,,,,,,,8B,,,,,,,,,,,,,,yes,,,2021-12-25T02:09:17.000Z,342257,group_9,378328,Prediction3/Open2,1,2021-12-25T01:21:23.000Z,,,,not measured,,True
11,OpenEndedSeg_2,4,OpenEndedSeg_2,4,11,,,,,,,3,,,,,,,,,,,,,,,,,,,,,,,,,,,,,,,,,,,,"""times=1640397274328;1640397291071;1640397304070;1640397307381;1640397311821;1640397315285;1640397319489;1640397324728;1640397328952;1640397335189---values=;16742;29741;33052;37492;40956;45160;50399;54623;60860""","""times=1640397274328;1640397347536;1640397350607;1640397360817;1640397363705;1640397367584;1640397369999;1640397374769;1640397378200;1640397383618;1640397392033;1640397397546---values=;10134;13205;23415;26303;30182;32597;37367;40798;46216;54631;60144""",,,,,,,,,,,,,,2B,,,,,,,,,,,,,,yes,,,2021-12-25T02:09:17.000Z,342257,group_9,378328,Prediction3/Open2,1,2021-12-25T01:21:23.000Z,,,,not measured,,True
11,OpenEndedSeg_2,4,OpenEndedSeg_2,5,13,,,,,,,4,,,,,,,,,,,,,,,,,,,,,,,,,,,,,,,,,,,,"""times=1640397400918;1640397412771;1640397424548;1640397426371;1640397433414;1640397436047;1640397438086;1640397439582;1640397442582;1640397457894---values=;11852;23629;25452;32495;35128;37167;38663;41663;56975""","""times=1640397400918;1640397481761;1640397483856;1640397486640;1640397490382;1640397494774;1640397504037;1640397508119;1640397518331;1640397521379---values=;19950;22045;24829;28571;32963;42226;46308;56520;59568""",,,,,,,,,,,,,,1B,,,,,,,,,,,,,,yes,,,2021-12-25T02:09:17.000Z,342257,group_9,378328,Prediction3/Open2,1,2021-12-25T01:21:23.000Z,,,,not measured,,True
11,OpenEndedSeg_2,4,OpenEndedSeg_2,6,3,,,,,,,1,,,,,,,,,,,,,,,,,,,,,,,,,,,,,,,,,,,,"""times=1640397523147;1640397543298;1640397560480;1640397572504---values=;20150;37332;49356""","""times=1640397523147;1640397592617;1640397612387;1640397617553---values=;18882;38652;43818""",,,,,,,,,,,,,,intact,,,,,,,,,,,,,,yes,,,2021-12-25T02:09:17.000Z,342257,group_9,378328,Prediction3/Open2,1,2021-12-25T01:21:23.000Z,,,,not measured,,True
11,OpenEndedSeg_2,4,OpenEndedSeg_2,7,16,,,,,,,4,,,,,,,,,,,,,,,,,,,,,,,,,,,,,,,,,,,,"""times=1640397624717;1640397626043;1640397628626;1640397649706;1640397667920;1640397673712---values=;1293;3876;24956;43170;48962""","""times=1640397624717;1640397717797;1640397723048;1640397725545;1640397727850;1640397734210;1640397736162;1640397739114;1640397744357---values=;32221;37472;39969;42273;48634;50586;53538;58781""",,,,,,,,,,,,,,1B,,,,,,,,,,,,,,yes,,,2021-12-25T02:09:17.000Z,342257,group_9,378328,Prediction3/Open2,1,2021-12-25T01:21:23.000Z,,,,not measured,,True
11,OpenEndedSeg_2,4,OpenEndedSeg_2,8,9,,,,,,,3,,,,,,,,,,,,,,,,,,,,,,,,,,,,,,,,,,,,"""times=1640397746892;1640397753375;1640397763984;1640397766271;1640397776458;1640397784788;1640397789417;1640397792553;1640397800465;1640397804347---values=;6483;17092;19379;29566;37896;42525;45661;53573;57455""","""times=1640397746892;1640397811354;1640397819136;1640397823062;1640397837849;1640397854947;1640397859162---values=;5686;13468;17394;32181;49279;53494""",,,,,,,,,,,,,,2B,,,,,,,,,,,,,,yes,,,2021-12-25T02:09:17.000Z,342257,group_9,378328,Prediction3/Open2,1,2021-12-25T01:21:23.000Z,,,,not measured,,True
11,OpenEndedSeg_2,3,Ready?,1,1,,,,,,,1,,,,,,,,,,,,,,,,,,,,,,,,,,,,,,,,,,,,,,,,,,,,,,,,,,,,,,,,,,,,,,,,,yes,,,2021-12-25T02:09:17.000Z,342257,group_9,378328,Prediction3/Open2,1,2021-12-25T01:21:23.000Z,,,,not measured,,True
11,OpenEndedSeg_2,2,Practice_OpenEnded,1,1,,,,,,,1,,,,,,,,,,,,,,,,,,,,,,,,,,,,,,,,,,,,,"""times=1640396803387;1640396810821;1640396820337;1640396830730;1640396836389;1640396844374;1640396849867;1640396865257;1640396868801---values=7742;15176;24692;35085;40744;48729;54222;69612;73156""",,,,,,,,,,,,,,,,,,,,,,,,,,,,yes,,,2021-12-25T02:09:17.000Z,342257,group_9,378328,Prediction3/Open2,1,2021-12-25T01:21:23.000Z,,,,not measured,,True
11,OpenEndedSeg_2,1,Instructions_Open,1,1,,,,,,,1,,,,,,,,,,,,,,,,,,,,,,,,,,,,,,,,,,,,,,,,,,,,,,,,,,,,,,,,,,,,,,,,,yes,,,2021-12-25T02:09:17.000Z,342257,group_9,378328,Prediction3/Open2,1,2021-12-25T01:21:23.000Z,,,,not measured,,True
9,Prediction3,4,Prediction_3,1,10,,,,,Second,4_8B_prediction_9.mp3,1,,,,,,,,correct_left,,,,,,,,,,,,,,,,,,,,,,,,,,,,,,,,,Incorrect,,,,1952.0,,,,,,,,,,,,,8B,,,,,,,yes,,,2021-12-25T02:09:17.000Z,342257,group_9,378328,Prediction3/Open2,1,2021-12-25T01:21:23.000Z,,,,not measured,,True
9,Prediction3,4,Prediction_3,2,8,,,,,Second,4_8B_prediction_7.mp3,1,,,,,,,,correct_left,,,,,,,,,,,,,,,,,,,,,,,,,,,,,,,,,Incorrect,,,,1136.0,,,,,,,,,,,,,8B,,,,,,,yes,,,2021-12-25T02:09:17.000Z,342257,group_9,378328,Prediction3/Open2,1,2021-12-25T01:21:23.000Z,,,,not measured,,True
9,Prediction3,4,Prediction_3,3,44,,,,,First,3_1B_prediction_9.mp3,5,,,,,,,,correct_left,,,,,,,,,,,,,,,,,,,,,,,,,,,,,,,,,Correct,,,,1284.0,,,,,,,,,,,,,1B,,,,,,,yes,,,2021-12-25T02:09:17.000Z,342257,group_9,378328,Prediction3/Open2,1,2021-12-25T01:21:23.000Z,,,,not measured,,True
9,Prediction3,4,Prediction_3,4,1,,,,,Second,3_8B_prediction_6.mp3,1,,,,,,,,correct_left,,,,,,,,,,,,,,,,,,,,,,,,,,,,,,,,,Incorrect,,,,1795.0,,,,,,,,,,,,,8B,,,,,,,yes,,,2021-12-25T02:09:17.000Z,342257,group_9,378328,Prediction3/Open2,1,2021-12-25T01:21:23.000Z,,,,not measured,,True
9,Prediction3,4,Prediction_3,5,13,,,,,Second,3_8B_prediction_8.mp3,2,,,,,,,,incorrect_left,,,,,,,,,,,,,,,,,,,,,,,,,,,,,,,,,Correct,,,,1355.0,,,,,,,,,,,,,8B,,,,,,,yes,,,2021-12-25T02:09:17.000Z,342257,group_9,378328,Prediction3/Open2,1,2021-12-25T01:21:23.000Z,,,,not measured,,True
9,Prediction3,4,Prediction_3,6,59,,,,,Second,4_1B_prediction_8.mp3,6,,,,,,,,incorrect_left,,,,,,,,,,,,,,,,,,,,,,,,,,,,,,,,,Correct,,,,1866.0,,,,,,,,,,,,,1B,,,,,,,yes,,,2021-12-25T02:09:17.000Z,342257,group_9,378328,Prediction3/Open2,1,2021-12-25T01:21:23.000Z,,,,not measured,,True
9,Prediction3,4,Prediction_3,7,31,,,,,Second,3_2B_prediction_6.mp3,4,,,,,,,,incorrect_left,,,,,,,,,,,,,,,,,,,,,,,,,,,,,,,,,Correct,,,,1192.0,,,,,,,,,,,,,2B,,,,,,,yes,,,2021-12-25T02:09:17.000Z,342257,group_9,378328,Prediction3/Open2,1,2021-12-25T01:21:23.000Z,,,,not measured,,True
9,Prediction3,4,Prediction_3,8,47,,,,,Second,4_1B_prediction_6.mp3,5,,,,,,,,correct_left,,,,,,,,,,,,,,,,,,,,,,,,,,,,,,,,,Incorrect,,,,922.0,,,,,,,,,,,,,1B,,,,,,,yes,,,2021-12-25T02:09:17.000Z,342257,group_9,378328,Prediction3/Open2,1,2021-12-25T01:21:23.000Z,,,,not measured,,True
9,Prediction3,4,Prediction_3,9,27,,,,,First,4_2B_prediction_6.mp3,3,,,,,,,,correct_left,,,,,,,,,,,,,,,,,,,,,,,,,,,,,,,,,Correct,,,,1084.0,,,,,,,,,,,,,2B,,,,,,,yes,,,2021-12-25T02:09:17.000Z,342257,group_9,378328,Prediction3/Open2,1,2021-12-25T01:21:23.000Z,,,,not measured,,True
9,Prediction3,4,Prediction_3,10,2,,,,,First,3_8B_prediction_7.mp3,1,,,,,,,,correct_left,,,,,,,,,,,,,,,,,,,,,,,,,,,,,,,,,Correct,,,,988.0,,,,,,,,,,,,,8B,,,,,,,yes,,,2021-12-25T02:09:17.000Z,342257,group_9,378328,Prediction3/Open2,1,2021-12-25T01:21:23.000Z,,,,not measured,,True
9,Prediction3,4,Prediction_3,11,52,,,,,Second,3_1B_prediction_7.mp3,6,,,,,,,,incorrect_left,,,,,,,,,,,,,,,,,,,,,,,,,,,,,,,,,Correct,,,,1491.0,,,,,,,,,,,,,1B,,,,,,,yes,,,2021-12-25T02:09:17.000Z,342257,group_9,378328,Prediction3/Open2,1,2021-12-25T01:21:23.000Z,,,,not measured,,True
9,Prediction3,4,Prediction_3,12,19,,,,,Second,4_8B_prediction_8.mp3,2,,,,,,,,incorrect_left,,,,,,,,,,,,,,,,,,,,,,,,,,,,,,,,,Correct,,,,1284.0,,,,,,,,,,,,,8B,,,,,,,yes,,,2021-12-25T02:09:17.000Z,342257,group_9,378328,Prediction3/Open2,1,2021-12-25T01:21:23.000Z,,,,not measured,,True
9,Prediction3,4,Prediction_3,13,22,,,,,First,3_2B_prediction_7.mp3,3,,,,,,,,correct_left,,,,,,,,,,,,,,,,,,,,,,,,,,,,,,,,,Correct,,,,1137.0,,,,,,,,,,,,,2B,,,,,,,yes,,,2021-12-25T02:09:17.000Z,342257,group_9,378328,Prediction3/Open2,1,2021-12-25T01:21:23.000Z,,,,not measured,,True
9,Prediction3,4,Prediction_3,14,34,,,,,Second,3_2B_prediction_9.mp3,4,,,,,,,,incorrect_left,,,,,,,,,,,,,,,,,,,,,,,,,,,,,,,,,Correct,,,,1600.0,,,,,,,,,,,,,2B,,,,,,,yes,,,2021-12-25T02:09:17.000Z,342257,group_9,378328,Prediction3/Open2,1,2021-12-25T01:21:23.000Z,,,,not measured,,True
9,Prediction3,4,Prediction_3,15,51,,,,,Second,3_1B_prediction_6.mp3,6,,,,,,,,incorrect_left,,,,,,,,,,,,,,,,,,,,,,,,,,,,,,,,,Correct,,,,2339.0,,,,,,,,,,,,,1B,,,,,,,yes,,,2021-12-25T02:09:17.000Z,342257,group_9,378328,Prediction3/Open2,1,2021-12-25T01:21:23.000Z,,,,not measured,,True
9,Prediction3,4,Prediction_3,16,15,,,,,Second,3_8B_prediction_2.mp3,2,,,,,,,,incorrect_left,,,,,,,,,,,,,,,,,,,,,,,,,,,,,,,,,Correct,,,,1121.0,,,,,,,,,,,,,8B,,,,,,,yes,,,2021-12-25T02:09:17.000Z,342257,group_9,378328,Prediction3/Open2,1,2021-12-25T01:21:23.000Z,,,,not measured,,True
9,Prediction3,4,Prediction_3,17,28,,,,,Second,4_2B_prediction_7.mp3,3,,,,,,,,correct_left,,,,,,,,,,,,,,,,,,,,,,,,,,,,,,,,,Incorrect,,,,1601.0,,,,,,,,,,,,,2B,,,,,,,yes,,,2021-12-25T02:09:17.000Z,342257,group_9,378328,Prediction3/Open2,1,2021-12-25T01:21:23.000Z,,,,not measured,,True
9,Prediction3,4,Prediction_3,18,50,,,,,Second,4_8B_prediction_9.mp3,5,,,,,,,,correct_left,,,,,,,,,,,,,,,,,,,,,,,,,,,,,,,,,Incorrect,,,,1743.0,,,,,,,,,,,,,1B,,,,,,,yes,,,2021-12-25T02:09:17.000Z,342257,group_9,378328,Prediction3/Open2,1,2021-12-25T01:21:23.000Z,,,,not measured,,True
9,Prediction3,4,Prediction_3,19,30,,,,,First,4_2B_prediction_9.mp3,3,,,,,,,,correct_left,,,,,,,,,,,,,,,,,,,,,,,,,,,,,,,,,Correct,,,,2094.0,,,,,,,,,,,,,2B,,,,,,,yes,,,2021-12-25T02:09:17.000Z,342257,group_9,378328,Prediction3/Open2,1,2021-12-25T01:21:23.000Z,,,,not measured,,True
9,Prediction3,4,Prediction_3,20,46,,,,,First,4_1B_prediction_5.mp3,5,,,,,,,,correct_left,,,,,,,,,,,,,,,,,,,,,,,,,,,,,,,,,Correct,,,,1723.0,,,,,,,,,,,,,1B,,,,,,,yes,,,2021-12-25T02:09:17.000Z,342257,group_9,378328,Prediction3/Open2,1,2021-12-25T01:21:23.000Z,,,,not measured,,True
9,Prediction3,4,Prediction_3,21,29,,,,,First,4_2B_prediction_8.mp3,3,,,,,,,,correct_left,,,,,,,,,,,,,,,,,,,,,,,,,,,,,,,,,Correct,,,,1462.0,,,,,,,,,,,,,2B,,,,,,,yes,,,2021-12-25T02:09:17.000Z,342257,group_9,378328,Prediction3/Open2,1,2021-12-25T01:21:23.000Z,,,,not measured,,True
9,Prediction3,4,Prediction_3,22,55,,,,,First,3_1B_prediction_10.mp3,6,,,,,,,,incorrect_left,,,,,,,,,,,,,,,,,,,,,,,,,,,,,,,,,Incorrect,,,,2408.0,,,,,,,,,,,,,1B,,,,,,,yes,,,2021-12-25T02:09:17.000Z,342257,group_9,378328,Prediction3/Open2,1,2021-12-25T01:21:23.000Z,,,,not measured,,True
9,Prediction3,4,Prediction_3,23,4,,,,,First,3_8B_prediction_9.mp3,1,,,,,,,,correct_left,,,,,,,,,,,,,,,,,,,,,,,,,,,,,,,,,Correct,,,,1616.0,,,,,,,,,,,,,8B,,,,,,,yes,,,2021-12-25T02:09:17.000Z,342257,group_9,378328,Prediction3/Open2,1,2021-12-25T01:21:23.000Z,,,,not measured,,True
9,Prediction3,4,Prediction_3,24,16,,,,,First,4_8B_prediction_5.mp3,2,,,,,,,,incorrect_left,,,,,,,,,,,,,,,,,,,,,,,,,,,,,,,,,Incorrect,,,,804.0,,,,,,,,,,,,,8B,,,,,,,yes,,,2021-12-25T02:09:17.000Z,342257,group_9,378328,Prediction3/Open2,1,2021-12-25T01:21:23.000Z,,,,not measured,,True
9,Prediction3,4,Prediction_3,25,53,,,,,First,3_1B_prediction_8.mp3,6,,,,,,,,incorrect_left,,,,,,,,,,,,,,,,,,,,,,,,,,,,,,,,,Incorrect,,,,2076.0,,,,,,,,,,,,,1B,,,,,,,yes,,,2021-12-25T02:09:17.000Z,342257,group_9,378328,Prediction3/Open2,1,2021-12-25T01:21:23.000Z,,,,not measured,,True
9,Prediction3,4,Prediction_3,26,58,,,,,First,4_1B_prediction_7.mp3,6,,,,,,,,incorrect_left,,,,,,,,,,,,,,,,,,,,,,,,,,,,,,,,,Incorrect,,,,1583.0,,,,,,,,,,,,,1B,,,,,,,yes,,,2021-12-25T02:09:17.000Z,342257,group_9,378328,Prediction3/Open2,1,2021-12-25T01:21:23.000Z,,,,not measured,,True
9,Prediction3,4,Prediction_3,27,33,,,,,First,3_2B_prediction_8.mp3,4,,,,,,,,incorrect_left,,,,,,,,,,,,,,,,,,,,,,,,,,,,,,,,,Incorrect,,,,627.0,,,,,,,,,,,,,2B,,,,,,,yes,,,2021-12-25T02:09:17.000Z,342257,group_9,378328,Prediction3/Open2,1,2021-12-25T01:21:23.000Z,,,,not measured,,True
9,Prediction3,4,Prediction_3,28,7,,,,,First,4_8B_prediction_6.mp3,1,,,,,,,,correct_left,,,,,,,,,,,,,,,,,,,,,,,,,,,,,,,,,Correct,,,,907.0,,,,,,,,,,,,,8B,,,,,,,yes,,,2021-12-25T02:09:17.000Z,342257,group_9,378328,Prediction3/Open2,1,2021-12-25T01:21:23.000Z,,,,not measured,,True
9,Prediction3,4,Prediction_3,29,35,,,,,First,3_2B_prediction_10.mp3,4,,,,,,,,incorrect_left,,,,,,,,,,,,,,,,,,,,,,,,,,,,,,,,,Incorrect,,,,966.0,,,,,,,,,,,,,2B,,,,,,,yes,,,2021-12-25T02:09:17.000Z,342257,group_9,378328,Prediction3/Open2,1,2021-12-25T01:21:23.000Z,,,,not measured,,True
9,Prediction3,4,Prediction_3,30,36,,,,,Second,4_2B_prediction_5.mp3,4,,,,,,,,incorrect_left,,,,,,,,,,,,,,,,,,,,,,,,,,,,,,,,,Correct,,,,1168.0,,,,,,,,,,,,,2B,,,,,,,yes,,,2021-12-25T02:09:17.000Z,342257,group_9,378328,Prediction3/Open2,1,2021-12-25T01:21:23.000Z,,,,not measured,,True
9,Prediction3,3,Ready?,1,1,,,,,,,1,,,,,,,,,,,,,,,,,,,,,,,,,,,,,,,,,,,,,,,,,,,,,,,,,,,,,,,,,,,,,,,,,yes,,,2021-12-25T02:09:17.000Z,342257,group_9,378328,Prediction3/Open2,1,2021-12-25T01:21:23.000Z,,,,not measured,,True
9,Prediction3,2,Practice_Prediction,1,3,,,,,First,,1,,,,,,,,,,correct_incorrect,,,,,,,,,,,,,,,,,,,,,,,,,,,,,,,Correct,,,,1499.0,,,,,,,,,,,,,,,,,,,,yes,,,2021-12-25T02:09:17.000Z,342257,group_9,378328,Prediction3/Open2,1,2021-12-25T01:21:23.000Z,,,,not measured,,True
9,Prediction3,2,Practice_Prediction,2,1,,,,,First,,1,,,,,,,,,,correct_incorrect,,,,,,,,,,,,,,,,,,,,,,,,,,,,,,,Correct,,,,3004.0,,,,,,,,,,,,,,,,,,,,yes,,,2021-12-25T02:09:17.000Z,342257,group_9,378328,Prediction3/Open2,1,2021-12-25T01:21:23.000Z,,,,not measured,,True
9,Prediction3,2,Practice_Prediction,3,5,,,,,First,,2,,,,,,,,,,incorrect_correct,,,,,,,,,,,,,,,,,,,,,,,,,,,,,,,Incorrect,,,,1887.0,,,,,,,,,,,,,,,,,,,,yes,,,2021-12-25T02:09:17.000Z,342257,group_9,378328,Prediction3/Open2,1,2021-12-25T01:21:23.000Z,,,,not measured,,True
9,Prediction3,1,Instructions_Prediction,1,1,,,,,,,1,,,,,,,,,,,,,,,,,,,,,,,,,,,,,,,,,,,,,,,,,,,,,,,,,,,,,,,,,,,,,,,,,yes,,,2021-12-25T02:09:17.000Z,342257,group_9,378328,Prediction3/Open2,1,2021-12-25T01:21:23.000Z,,,,not measured,,True
7,HP_Screen,3,imported_HP Evaluation,1,1,,,,,,,1,,,,,,,,,,,,,,0.0,,,,,,,,,,,,,,,,,,,,,,,,,,,,,,,,,,,,,,,,,,,,,,,,,,,yes,,,2021-12-25T02:09:17.000Z,342257,group_9,378328,Prediction3/Open2,1,2021-12-25T01:21:23.000Z,,,,not measured,,True
7,HP_Screen,2,imported_HP Trials,1,5,,,,,,,1,,,,,,,,,,,,,,0.0,,,"""times=;;;;;;;;;;;;;;;;;---values=;;;;;;;;;;;;;;;;;""",hp6.2.flac,,,,,,,,,,,,,,,,,,,,,,,choice 2,,,,,,,,,,,,,,,,,,,hp6.2.flac,,,,,yes,,,2021-12-25T02:09:17.000Z,342257,group_9,378328,Prediction3/Open2,1,2021-12-25T01:21:23.000Z,,,,not measured,,True
7,HP_Screen,2,imported_HP Trials,2,3,,,,,,,1,,,,,,,,,,,,,,0.0,,,"""times=;;;;;;;;;;;;;;;;;---values=;;;;;;;;;;;;;;;;;""",hp4.2.flac,,,,,,,,,,,,,,,,,,,,,,,choice 2,,,,,,,,,,,,,,,,,,,hp4.2.flac,,,,,yes,,,2021-12-25T02:09:17.000Z,342257,group_9,378328,Prediction3/Open2,1,2021-12-25T01:21:23.000Z,,,,not measured,,True
7,HP_Screen,2,imported_HP Trials,3,1,,,,,,,1,,,,,,,,,,,,,,0.0,,,"""times=;;;;;;;;;;;;;;;;;---values=;;;;;;;;;;;;;;;;;""",hp4.3.flac,,,,,,,,,,,,,,,,,,,,,,,choice 3,,,,,,,,,,,,,,,,,,,hp4.3.flac,,,,,yes,,,2021-12-25T02:09:17.000Z,342257,group_9,378328,Prediction3/Open2,1,2021-12-25T01:21:23.000Z,,,,not measured,,True
7,HP_Screen,2,imported_HP Trials,4,2,,,,,,,1,,,,,,,,,,,,,,0.0,,,"""times=;;;;;;;;;;;;;;;;;---values=;;;;;;;;;;;;;;;;;""",hp3.2.flac,,,,,,,,,,,,,,,,,,,,,,,choice 2,,,,,,,,,,,,,,,,,,,hp3.2.flac,,,,,yes,,,2021-12-25T02:09:17.000Z,342257,group_9,378328,Prediction3/Open2,1,2021-12-25T01:21:23.000Z,,,,not measured,,True
7,HP_Screen,2,imported_HP Trials,5,6,,,,,,,1,,,,,,,,,,,,,,0.0,,,"""times=;;;;;;;;;;;;;;;;;---values=;;;;;;;;;;;;;;;;;""",hp5.1.flac,,,,,,,,,,,,,,,,,,,,,,,choice 1,,,,,,,,,,,,,,,,,,,hp5.1.flac,,,,,yes,,,2021-12-25T02:09:17.000Z,342257,group_9,378328,Prediction3/Open2,1,2021-12-25T01:21:23.000Z,,,,not measured,,True
7,HP_Screen,2,imported_HP Trials,6,4,,,,,,,1,,,,,,,,,,,,,,0.0,,,"""times=;;;;;;;;;;;;;;;;;---values=;;;;;;;;;;;;;;;;;""",hp6.1.flac,,,,,,,,,,,,,,,,,,,,,,,choice 1,,,,,,,,,,,,,,,,,,,hp6.1.flac,,,,,yes,,,2021-12-25T02:09:17.000Z,342257,group_9,378328,Prediction3/Open2,1,2021-12-25T01:21:23.000Z,,,,not measured,,True
7,HP_Screen,1,imported_HP Instructions,1,1,,,,,,,1,,,,,,,,,,,,,,,3.0,,,,,,,,,,,,,,,,,,,,,,,,,,,,,,,,,,,,,,,,,,,,,,,,,,yes,,,2021-12-25T02:09:17.000Z,342257,group_9,378328,Prediction3/Open2,1,2021-12-25T01:21:23.000Z,,,,not measured,,True
6,AP_Screen,3,imported_AP_eval,1,1,,,,,,,1,,,,,,,,,,,,,,,,,,,,,,,,,,,,,,,0.0,,,,,,,,,,,,,,,,,,,,,,,,,,,,,,,,,,yes,,,2021-12-25T02:09:17.000Z,342257,group_9,378328,Prediction3/Open2,1,2021-12-25T01:21:23.000Z,,,,not measured,,True
6,AP_Screen,2,imported_AP_headphone test,1,5,,,,,,,5,,,,,,,,,,,,two,,,,,,,,,,,,,,,1.0,,,,0.0,,,,,,,,,,,,,,,,,,,,,,,,,,,,,,,,O_S_I,,yes,,,2021-12-25T02:09:17.000Z,342257,group_9,378328,Prediction3/Open2,1,2021-12-25T01:21:23.000Z,,,,not measured,,True
6,AP_Screen,2,imported_AP_headphone test,2,4,,,,,,,4,,,,,,,,,,,,one,,,,,,,,,,,,,,,1.0,,,,0.0,,,,,,,,,,,,,,,,,,,,,,,,,,,,,,,,S_I_O,,yes,,,2021-12-25T02:09:17.000Z,342257,group_9,378328,Prediction3/Open2,1,2021-12-25T01:21:23.000Z,,,,not measured,,True
6,AP_Screen,2,imported_AP_headphone test,3,2,,,,,,,2,,,,,,,,,,,,two,,,,,,,,,,,,,,,1.0,,,,0.0,,,,,,,,,,,,,,,,,,,,,,,,,,,,,,,,I_S_O,,yes,,,2021-12-25T02:09:17.000Z,342257,group_9,378328,Prediction3/Open2,1,2021-12-25T01:21:23.000Z,,,,not measured,,True
6,AP_Screen,2,imported_AP_headphone test,4,1,,,,,,,1,,,,,,,,,,,,three,,,,,,,,,,,,,,,1.0,,,,0.0,,,,,,,,,,,,,,,,,,,,,,,,,,,,,,,,I_O_S,,yes,,,2021-12-25T02:09:17.000Z,342257,group_9,378328,Prediction3/Open2,1,2021-12-25T01:21:23.000Z,,,,not measured,,True
6,AP_Screen,2,imported_AP_headphone test,5,6,,,,,,,6,,,,,,,,,,,,three,,,,,,,,,,,,,,,1.0,,,,0.0,,,,,,,,,,,,,,,,,,,,,,,,,,,,,,,,O_I_S,,yes,,,2021-12-25T02:09:17.000Z,342257,group_9,378328,Prediction3/Open2,1,2021-12-25T01:21:23.000Z,,,,not measured,,True
6,AP_Screen,2,imported_AP_headphone test,6,3,,,,,,,3,,,,,,,,,,,,one,,,,,,,,,,,,,,,1.0,,,,0.0,,,,,,,,,,,,,,,,,,,,,,,,,,,,,,,,S_O_I,,yes,,,2021-12-25T02:09:17.000Z,342257,group_9,378328,Prediction3/Open2,1,2021-12-25T01:21:23.000Z,,,,not measured,,True
6,AP_Screen,1,imported_AP_instruction,1,1,,,,,,,1,,,,,,,,,,,,,,,,,,,,,,,,,,,,,,,,,,,,,,,,,,,,,,,,,,,,,,,,,,,,,,,,,yes,,,2021-12-25T02:09:17.000Z,342257,group_9,378328,Prediction3/Open2,1,2021-12-25T01:21:23.000Z,,,,not measured,,True
4,GenInstructPredOpen,1,InstructionsPredOpen,1,1,,,,,,,1,,,,,,,,,,,,,,,,,,,,,,,,,,,,,,,,,,,,,,,,,,,,,,,,,,,,,,,,,,,,,,,,,yes,,,2021-12-25T02:09:17.000Z,342257,group_9,378328,Prediction3/Open2,1,2021-12-25T01:21:23.000Z,,,,not measured,,True
2,Consent,1,Consent,1,1,,,,,,,1,,,,,,,,,,,,,,,,,,,,,,,,,,,,,,,,,,,,,,,,,,,,,,,,,,,,,,,,,,,,,,,,,yes,,,2021-12-25T02:09:17.000Z,342257,group_9,378328,Prediction3/Open2,1,2021-12-25T01:21:23.000Z,,,,not measured,,True
