Block_Nr,Block_Name,Task_Nr,Task_Name,Trial_Nr,Trial_Id,ab_pitch,age_range,answer,best_instru,choice,clip,Condition_Id,conditions,consent,correct_incorrect_m_2,correct_incorrect_m_3,correct_incorrect_mem_1,correct_incorrect_p_1,correct_incorrect_p_2,correct_incorrect_p_3,correct_incorrect_practice_m,correct_incorrect_practice_p,correctCount,decision,earworm,errorCount,exampleCount,familiarity,fileArray,filePick,Frequenc,genre,genre_3,genre_4,hour,imagery,imagery_2,Instr,isCorrect,listen_time,music_theory,name_instru,nrErrors,num_instru,participant_choice,participant_choice_2,participant_choice2,participant_spacePress,participant_spacePress2,played_notplayed,practice_catseg_scramble,relative_pitch,response,response_seg,response_seg2,response_Time2,responseTime,retestCount,scramble_cat_1,scramble_cat_3,scramble_cat_4,scramble_catseg_4,scramble_level,scramble_m_1,scramble_m_2,scramble_m_3,scramble_open_3,scramble_p_1,scramble_p_2,scramble_p_3,set1response,soundName,strategy,time_atClipStart1,toneSequence,always_fullscreen,completed,crowdsourcing_code,crowdsourcing_subj_id,end_time,exp_subject_id,group_name,rec_session_id,session_name,session_nr,start_time,subj_counter_global,subj_counter_per_group,subject_code,time_delay_offset,time_measure_std,unlocked
13,Post-Survey,1,Post-Survey,1,1,,,,,,,1,,,,,,,,,,,,,,,,1.0,,,,,,,,,,,,,,,,,,,,,,option_1,,,,,,,,,,,,,,,,,,,,,,,"Pressed Space on the first audible change, on second clip waited for the more obvious one",,,,yes,,,2022-01-17T01:28:09.000Z,352026,group_9,390312,Prediction3/Open2,1,2022-01-17T00:38:59.000Z,,,,not measured,,True
11,OpenEndedSeg_2,4,OpenEndedSeg_2,1,10,,,,,,,3,,,,,,,,,,,,,,,,,,,,,,,,,,,,,,,,,,,,"""times=1642381774864---values=19205""","""times=1642381755639;1642381854053---values=;35650""",,,,,,,,,,,,,,2B,,,,,,,,,,,,,,yes,,,2022-01-17T01:28:09.000Z,352026,group_9,390312,Prediction3/Open2,1,2022-01-17T00:38:59.000Z,,,,not measured,,True
11,OpenEndedSeg_2,4,OpenEndedSeg_2,2,11,,,,,,,3,,,,,,,,,,,,,,,,,,,,,,,,,,,,,,,,,,,,"""times=1642381881639;1642381895860---values=;14163""","""times=1642381881639;1642381955804---values=;11045""",,,,,,,,,,,,,,2B,,,,,,,,,,,,,,yes,,,2022-01-17T01:28:09.000Z,352026,group_9,390312,Prediction3/Open2,1,2022-01-17T00:38:59.000Z,,,,not measured,,True
11,OpenEndedSeg_2,4,OpenEndedSeg_2,3,16,,,,,,,4,,,,,,,,,,,,,,,,,,,,,,,,,,,,,,,,,,,,"""times=1642382008277;1642382033944---values=;25611""","""times=1642382008277;1642382100289---values=;31124""",,,,,,,,,,,,,,1B,,,,,,,,,,,,,,yes,,,2022-01-17T01:28:09.000Z,352026,group_9,390312,Prediction3/Open2,1,2022-01-17T00:38:59.000Z,,,,not measured,,True
11,OpenEndedSeg_2,4,OpenEndedSeg_2,4,6,,,,,,,2,,,,,,,,,,,,,,,,,,,,,,,,,,,,,,,,,,,,"""times=1642382130467;1642382151032---values=;20520""","""times=1642382130467;1642382234178---values=;36775""",,,,,,,,,,,,,,8B,,,,,,,,,,,,,,yes,,,2022-01-17T01:28:09.000Z,352026,group_9,390312,Prediction3/Open2,1,2022-01-17T00:38:59.000Z,,,,not measured,,True
11,OpenEndedSeg_2,4,OpenEndedSeg_2,5,4,,,,,,,1,,,,,,,,,,,,,,,,,,,,,,,,,,,,,,,,,,,,"""times=1642382264816---values=""","""times=1642382264816;1642382354449---values=;26977""",,,,,,,,,,,,,,intact,,,,,,,,,,,,,,yes,,,2022-01-17T01:28:09.000Z,352026,group_9,390312,Prediction3/Open2,1,2022-01-17T00:38:59.000Z,,,,not measured,,True
11,OpenEndedSeg_2,4,OpenEndedSeg_2,6,14,,,,,,,4,,,,,,,,,,,,,,,,,,,,,,,,,,,,,,,,,,,,"""times=1642382399700---values=9122""","""times=1642382390555;1642382475309---values=;23863""",,,,,,,,,,,,,,1B,,,,,,,,,,,,,,yes,,,2022-01-17T01:28:09.000Z,352026,group_9,390312,Prediction3/Open2,1,2022-01-17T00:38:59.000Z,,,,not measured,,True
11,OpenEndedSeg_2,4,OpenEndedSeg_2,7,2,,,,,,,1,,,,,,,,,,,,,,,,,,,,,,,,,,,,,,,,,,,,"""times=1642382512798;1642382548818---values=;35957""","""times=1642382512798;1642382611564---values=;36211""",,,,,,,,,,,,,,intact,,,,,,,,,,,,,,yes,,,2022-01-17T01:28:09.000Z,352026,group_9,390312,Prediction3/Open2,1,2022-01-17T00:38:59.000Z,,,,not measured,,True
11,OpenEndedSeg_2,4,OpenEndedSeg_2,8,5,,,,,,,2,,,,,,,,,,,,,,,,,,,,,,,,,,,,,,,,,,,,"""times=1642382638305;1642382683093---values=;44779""","""times=1642382638305;1642382722392---values=;17620""",,,,,,,,,,,,,,8B,,,,,,,,,,,,,,yes,,,2022-01-17T01:28:09.000Z,352026,group_9,390312,Prediction3/Open2,1,2022-01-17T00:38:59.000Z,,,,not measured,,True
11,OpenEndedSeg_2,3,Ready?,1,1,,,,,,,1,,,,,,,,,,,,,,,,,,,,,,,,,,,,,,,,,,,,,,,,,,,,,,,,,,,,,,,,,,,,,,,,,yes,,,2022-01-17T01:28:09.000Z,352026,group_9,390312,Prediction3/Open2,1,2022-01-17T00:38:59.000Z,,,,not measured,,True
11,OpenEndedSeg_2,2,Practice_OpenEnded,1,1,,,,,,,1,,,,,,,,,,,,,,,,,,,,,,,,,,,,,,,,,,,,,"""times=1642381696684---values=26074""",,,,,,,,,,,,,,,,,,,,,,,,,,,,yes,,,2022-01-17T01:28:09.000Z,352026,group_9,390312,Prediction3/Open2,1,2022-01-17T00:38:59.000Z,,,,not measured,,True
11,OpenEndedSeg_2,1,Instructions_Open,1,1,,,,,,,1,,,,,,,,,,,,,,,,,,,,,,,,,,,,,,,,,,,,,,,,,,,,,,,,,,,,,,,,,,,,,,,,,yes,,,2022-01-17T01:28:09.000Z,352026,group_9,390312,Prediction3/Open2,1,2022-01-17T00:38:59.000Z,,,,not measured,,True
9,Prediction3,4,Prediction_3,1,18,,,,,First,4_8B_prediction_7.mp3,2,,,,,,,,incorrect_left,,,,,,,,,,,,,,,,,,,,,,,,,,,,,,,,,Incorrect,,,,1400.0,,,,,,,,,,,,,8B,,,,,,,yes,,,2022-01-17T01:28:09.000Z,352026,group_9,390312,Prediction3/Open2,1,2022-01-17T00:38:59.000Z,,,,not measured,,True
9,Prediction3,4,Prediction_3,2,49,,,,,Second,4_1B_prediction_8.mp3,5,,,,,,,,correct_left,,,,,,,,,,,,,,,,,,,,,,,,,,,,,,,,,Incorrect,,,,1691.0,,,,,,,,,,,,,1B,,,,,,,yes,,,2022-01-17T01:28:09.000Z,352026,group_9,390312,Prediction3/Open2,1,2022-01-17T00:38:59.000Z,,,,not measured,,True
9,Prediction3,4,Prediction_3,3,4,,,,,,3_8B_prediction_9.mp3,1,,,,,,,,correct_left,,,,,,,,,,,,,,,,,,,,,,,,,,,,,,,,,,,,,,,,,,,,,,,,,,8B,,,,,,,yes,,,2022-01-17T01:28:09.000Z,352026,group_9,390312,Prediction3/Open2,1,2022-01-17T00:38:59.000Z,,,,not measured,,True
9,Prediction3,4,Prediction_3,4,38,,,,,First,4_2B_prediction_7.mp3,4,,,,,,,,incorrect_left,,,,,,,,,,,,,,,,,,,,,,,,,,,,,,,,,Incorrect,,,,953.0,,,,,,,,,,,,,2B,,,,,,,yes,,,2022-01-17T01:28:09.000Z,352026,group_9,390312,Prediction3/Open2,1,2022-01-17T00:38:59.000Z,,,,not measured,,True
9,Prediction3,4,Prediction_3,5,30,,,,,First,4_2B_prediction_9.mp3,3,,,,,,,,correct_left,,,,,,,,,,,,,,,,,,,,,,,,,,,,,,,,,Correct,,,,669.0,,,,,,,,,,,,,2B,,,,,,,yes,,,2022-01-17T01:28:09.000Z,352026,group_9,390312,Prediction3/Open2,1,2022-01-17T00:38:59.000Z,,,,not measured,,True
9,Prediction3,4,Prediction_3,6,32,,,,,Second,3_2B_prediction_7.mp3,4,,,,,,,,incorrect_left,,,,,,,,,,,,,,,,,,,,,,,,,,,,,,,,,Correct,,,,2031.0,,,,,,,,,,,,,2B,,,,,,,yes,,,2022-01-17T01:28:09.000Z,352026,group_9,390312,Prediction3/Open2,1,2022-01-17T00:38:59.000Z,,,,not measured,,True
9,Prediction3,4,Prediction_3,7,20,,,,,Second,4_8B_prediction_9.mp3,2,,,,,,,,incorrect_left,,,,,,,,,,,,,,,,,,,,,,,,,,,,,,,,,Correct,,,,831.0,,,,,,,,,,,,,8B,,,,,,,yes,,,2022-01-17T01:28:09.000Z,352026,group_9,390312,Prediction3/Open2,1,2022-01-17T00:38:59.000Z,,,,not measured,,True
9,Prediction3,4,Prediction_3,8,29,,,,,First,4_2B_prediction_8.mp3,3,,,,,,,,correct_left,,,,,,,,,,,,,,,,,,,,,,,,,,,,,,,,,Correct,,,,823.0,,,,,,,,,,,,,2B,,,,,,,yes,,,2022-01-17T01:28:09.000Z,352026,group_9,390312,Prediction3/Open2,1,2022-01-17T00:38:59.000Z,,,,not measured,,True
9,Prediction3,4,Prediction_3,9,46,,,,,First,4_1B_prediction_5.mp3,5,,,,,,,,correct_left,,,,,,,,,,,,,,,,,,,,,,,,,,,,,,,,,Correct,,,,781.0,,,,,,,,,,,,,1B,,,,,,,yes,,,2022-01-17T01:28:09.000Z,352026,group_9,390312,Prediction3/Open2,1,2022-01-17T00:38:59.000Z,,,,not measured,,True
9,Prediction3,4,Prediction_3,10,45,,,,,Second,3_1B_prediction_10.mp3,5,,,,,,,,correct_left,,,,,,,,,,,,,,,,,,,,,,,,,,,,,,,,,Incorrect,,,,893.0,,,,,,,,,,,,,1B,,,,,,,yes,,,2022-01-17T01:28:09.000Z,352026,group_9,390312,Prediction3/Open2,1,2022-01-17T00:38:59.000Z,,,,not measured,,True
9,Prediction3,4,Prediction_3,11,35,,,,,First,3_2B_prediction_10.mp3,4,,,,,,,,incorrect_left,,,,,,,,,,,,,,,,,,,,,,,,,,,,,,,,,Incorrect,,,,656.0,,,,,,,,,,,,,2B,,,,,,,yes,,,2022-01-17T01:28:09.000Z,352026,group_9,390312,Prediction3/Open2,1,2022-01-17T00:38:59.000Z,,,,not measured,,True
9,Prediction3,4,Prediction_3,12,31,,,,,Second,3_2B_prediction_6.mp3,4,,,,,,,,incorrect_left,,,,,,,,,,,,,,,,,,,,,,,,,,,,,,,,,Correct,,,,933.0,,,,,,,,,,,,,2B,,,,,,,yes,,,2022-01-17T01:28:09.000Z,352026,group_9,390312,Prediction3/Open2,1,2022-01-17T00:38:59.000Z,,,,not measured,,True
9,Prediction3,4,Prediction_3,13,9,,,,,First,4_8B_prediction_8.mp3,1,,,,,,,,correct_left,,,,,,,,,,,,,,,,,,,,,,,,,,,,,,,,,Correct,,,,621.0,,,,,,,,,,,,,8B,,,,,,,yes,,,2022-01-17T01:28:09.000Z,352026,group_9,390312,Prediction3/Open2,1,2022-01-17T00:38:59.000Z,,,,not measured,,True
9,Prediction3,4,Prediction_3,14,5,,,,,First,3_8B_prediction_2.mp3,1,,,,,,,,correct_left,,,,,,,,,,,,,,,,,,,,,,,,,,,,,,,,,Correct,,,,805.0,,,,,,,,,,,,,8B,,,,,,,yes,,,2022-01-17T01:28:09.000Z,352026,group_9,390312,Prediction3/Open2,1,2022-01-17T00:38:59.000Z,,,,not measured,,True
9,Prediction3,4,Prediction_3,15,58,,,,,Second,4_1B_prediction_7.mp3,6,,,,,,,,incorrect_left,,,,,,,,,,,,,,,,,,,,,,,,,,,,,,,,,Correct,,,,1014.0,,,,,,,,,,,,,1B,,,,,,,yes,,,2022-01-17T01:28:09.000Z,352026,group_9,390312,Prediction3/Open2,1,2022-01-17T00:38:59.000Z,,,,not measured,,True
9,Prediction3,4,Prediction_3,16,24,,,,,Second,3_2B_prediction_9.mp3,3,,,,,,,,correct_left,,,,,,,,,,,,,,,,,,,,,,,,,,,,,,,,,Incorrect,,,,1768.0,,,,,,,,,,,,,2B,,,,,,,yes,,,2022-01-17T01:28:09.000Z,352026,group_9,390312,Prediction3/Open2,1,2022-01-17T00:38:59.000Z,,,,not measured,,True
9,Prediction3,4,Prediction_3,17,33,,,,,Second,3_2B_prediction_8.mp3,4,,,,,,,,incorrect_left,,,,,,,,,,,,,,,,,,,,,,,,,,,,,,,,,Correct,,,,720.0,,,,,,,,,,,,,2B,,,,,,,yes,,,2022-01-17T01:28:09.000Z,352026,group_9,390312,Prediction3/Open2,1,2022-01-17T00:38:59.000Z,,,,not measured,,True
9,Prediction3,4,Prediction_3,18,43,,,,,Second,3_1B_prediction_8.mp3,5,,,,,,,,correct_left,,,,,,,,,,,,,,,,,,,,,,,,,,,,,,,,,Incorrect,,,,607.0,,,,,,,,,,,,,1B,,,,,,,yes,,,2022-01-17T01:28:09.000Z,352026,group_9,390312,Prediction3/Open2,1,2022-01-17T00:38:59.000Z,,,,not measured,,True
9,Prediction3,4,Prediction_3,19,57,,,,,Second,4_1B_prediction_6.mp3,6,,,,,,,,incorrect_left,,,,,,,,,,,,,,,,,,,,,,,,,,,,,,,,,Correct,,,,1160.0,,,,,,,,,,,,,1B,,,,,,,yes,,,2022-01-17T01:28:09.000Z,352026,group_9,390312,Prediction3/Open2,1,2022-01-17T00:38:59.000Z,,,,not measured,,True
9,Prediction3,4,Prediction_3,20,60,,,,,Second,4_1B_prediction_9.mp3,6,,,,,,,,incorrect_left,,,,,,,,,,,,,,,,,,,,,,,,,,,,,,,,,Correct,,,,882.0,,,,,,,,,,,,,1B,,,,,,,yes,,,2022-01-17T01:28:09.000Z,352026,group_9,390312,Prediction3/Open2,1,2022-01-17T00:38:59.000Z,,,,not measured,,True
9,Prediction3,4,Prediction_3,21,3,,,,,First,3_8B_prediction_8.mp3,1,,,,,,,,correct_left,,,,,,,,,,,,,,,,,,,,,,,,,,,,,,,,,Correct,,,,845.0,,,,,,,,,,,,,8B,,,,,,,yes,,,2022-01-17T01:28:09.000Z,352026,group_9,390312,Prediction3/Open2,1,2022-01-17T00:38:59.000Z,,,,not measured,,True
9,Prediction3,4,Prediction_3,22,54,,,,,Second,3_1B_prediction_9.mp3,6,,,,,,,,incorrect_left,,,,,,,,,,,,,,,,,,,,,,,,,,,,,,,,,Correct,,,,761.0,,,,,,,,,,,,,1B,,,,,,,yes,,,2022-01-17T01:28:09.000Z,352026,group_9,390312,Prediction3/Open2,1,2022-01-17T00:38:59.000Z,,,,not measured,,True
9,Prediction3,4,Prediction_3,23,2,,,,,Second,3_8B_prediction_7.mp3,1,,,,,,,,correct_left,,,,,,,,,,,,,,,,,,,,,,,,,,,,,,,,,Incorrect,,,,815.0,,,,,,,,,,,,,8B,,,,,,,yes,,,2022-01-17T01:28:09.000Z,352026,group_9,390312,Prediction3/Open2,1,2022-01-17T00:38:59.000Z,,,,not measured,,True
9,Prediction3,4,Prediction_3,24,42,,,,,First,3_1B_prediction_7.mp3,5,,,,,,,,correct_left,,,,,,,,,,,,,,,,,,,,,,,,,,,,,,,,,Correct,,,,717.0,,,,,,,,,,,,,1B,,,,,,,yes,,,2022-01-17T01:28:09.000Z,352026,group_9,390312,Prediction3/Open2,1,2022-01-17T00:38:59.000Z,,,,not measured,,True
9,Prediction3,4,Prediction_3,25,36,,,,,Second,4_2B_prediction_5.mp3,4,,,,,,,,incorrect_left,,,,,,,,,,,,,,,,,,,,,,,,,,,,,,,,,Correct,,,,652.0,,,,,,,,,,,,,2B,,,,,,,yes,,,2022-01-17T01:28:09.000Z,352026,group_9,390312,Prediction3/Open2,1,2022-01-17T00:38:59.000Z,,,,not measured,,True
9,Prediction3,4,Prediction_3,26,37,,,,,Second,4_2B_prediction_6.mp3,4,,,,,,,,incorrect_left,,,,,,,,,,,,,,,,,,,,,,,,,,,,,,,,,Correct,,,,628.0,,,,,,,,,,,,,2B,,,,,,,yes,,,2022-01-17T01:28:09.000Z,352026,group_9,390312,Prediction3/Open2,1,2022-01-17T00:38:59.000Z,,,,not measured,,True
9,Prediction3,4,Prediction_3,27,51,,,,,Second,3_1B_prediction_6.mp3,6,,,,,,,,incorrect_left,,,,,,,,,,,,,,,,,,,,,,,,,,,,,,,,,Correct,,,,993.0,,,,,,,,,,,,,1B,,,,,,,yes,,,2022-01-17T01:28:09.000Z,352026,group_9,390312,Prediction3/Open2,1,2022-01-17T00:38:59.000Z,,,,not measured,,True
9,Prediction3,4,Prediction_3,28,7,,,,,First,4_8B_prediction_6.mp3,1,,,,,,,,correct_left,,,,,,,,,,,,,,,,,,,,,,,,,,,,,,,,,Correct,,,,726.0,,,,,,,,,,,,,8B,,,,,,,yes,,,2022-01-17T01:28:09.000Z,352026,group_9,390312,Prediction3/Open2,1,2022-01-17T00:38:59.000Z,,,,not measured,,True
9,Prediction3,4,Prediction_3,29,1,,,,,First,3_8B_prediction_6.mp3,1,,,,,,,,correct_left,,,,,,,,,,,,,,,,,,,,,,,,,,,,,,,,,Correct,,,,594.0,,,,,,,,,,,,,8B,,,,,,,yes,,,2022-01-17T01:28:09.000Z,352026,group_9,390312,Prediction3/Open2,1,2022-01-17T00:38:59.000Z,,,,not measured,,True
9,Prediction3,4,Prediction_3,30,16,,,,,Second,4_8B_prediction_5.mp3,2,,,,,,,,incorrect_left,,,,,,,,,,,,,,,,,,,,,,,,,,,,,,,,,Correct,,,,617.0,,,,,,,,,,,,,8B,,,,,,,yes,,,2022-01-17T01:28:09.000Z,352026,group_9,390312,Prediction3/Open2,1,2022-01-17T00:38:59.000Z,,,,not measured,,True
9,Prediction3,3,Ready?,1,1,,,,,,,1,,,,,,,,,,,,,,,,,,,,,,,,,,,,,,,,,,,,,,,,,,,,,,,,,,,,,,,,,,,,,,,,,yes,,,2022-01-17T01:28:09.000Z,352026,group_9,390312,Prediction3/Open2,1,2022-01-17T00:38:59.000Z,,,,not measured,,True
9,Prediction3,2,Practice_Prediction,1,6,,,,,Second,,2,,,,,,,,,,incorrect_correct,,,,,,,,,,,,,,,,,,,,,,,,,,,,,,,Correct,,,,2788.0,,,,,,,,,,,,,,,,,,,,yes,,,2022-01-17T01:28:09.000Z,352026,group_9,390312,Prediction3/Open2,1,2022-01-17T00:38:59.000Z,,,,not measured,,True
9,Prediction3,2,Practice_Prediction,2,2,,,,,First,,1,,,,,,,,,,correct_incorrect,,,,,,,,,,,,,,,,,,,,,,,,,,,,,,,Correct,,,,2331.0,,,,,,,,,,,,,,,,,,,,yes,,,2022-01-17T01:28:09.000Z,352026,group_9,390312,Prediction3/Open2,1,2022-01-17T00:38:59.000Z,,,,not measured,,True
9,Prediction3,2,Practice_Prediction,3,4,,,,,Second,,2,,,,,,,,,,incorrect_correct,,,,,,,,,,,,,,,,,,,,,,,,,,,,,,,Correct,,,,2283.0,,,,,,,,,,,,,,,,,,,,yes,,,2022-01-17T01:28:09.000Z,352026,group_9,390312,Prediction3/Open2,1,2022-01-17T00:38:59.000Z,,,,not measured,,True
9,Prediction3,1,Instructions_Prediction,1,1,,,,,,,1,,,,,,,,,,,,,,,,,,,,,,,,,,,,,,,,,,,,,,,,,,,,,,,,,,,,,,,,,,,,,,,,,yes,,,2022-01-17T01:28:09.000Z,352026,group_9,390312,Prediction3/Open2,1,2022-01-17T00:38:59.000Z,,,,not measured,,True
7,AP_Screen,3,imported_AP_eval,1,1,,,,,,,1,,,,,,,,,,,,,,,,,,,,,,,,,,,,,,,0.0,,,,,,,,,,,,,,,,,,,,,,,,,,,,,,,,,,yes,,,2022-01-17T01:28:09.000Z,352026,group_9,390312,Prediction3/Open2,1,2022-01-17T00:38:59.000Z,,,,not measured,,True
7,AP_Screen,2,imported_AP_headphone test,1,1,,,,,,,1,,,,,,,,,,,,three,,,,,,,,,,,,,,,1.0,,,,0.0,,,,,,,,,,,,,,,,,,,,,,,,,,,,,,,,I_O_S,,yes,,,2022-01-17T01:28:09.000Z,352026,group_9,390312,Prediction3/Open2,1,2022-01-17T00:38:59.000Z,,,,not measured,,True
7,AP_Screen,2,imported_AP_headphone test,2,6,,,,,,,6,,,,,,,,,,,,three,,,,,,,,,,,,,,,1.0,,,,0.0,,,,,,,,,,,,,,,,,,,,,,,,,,,,,,,,O_I_S,,yes,,,2022-01-17T01:28:09.000Z,352026,group_9,390312,Prediction3/Open2,1,2022-01-17T00:38:59.000Z,,,,not measured,,True
7,AP_Screen,2,imported_AP_headphone test,3,4,,,,,,,4,,,,,,,,,,,,one,,,,,,,,,,,,,,,1.0,,,,0.0,,,,,,,,,,,,,,,,,,,,,,,,,,,,,,,,S_I_O,,yes,,,2022-01-17T01:28:09.000Z,352026,group_9,390312,Prediction3/Open2,1,2022-01-17T00:38:59.000Z,,,,not measured,,True
7,AP_Screen,2,imported_AP_headphone test,4,3,,,,,,,3,,,,,,,,,,,,one,,,,,,,,,,,,,,,1.0,,,,0.0,,,,,,,,,,,,,,,,,,,,,,,,,,,,,,,,S_O_I,,yes,,,2022-01-17T01:28:09.000Z,352026,group_9,390312,Prediction3/Open2,1,2022-01-17T00:38:59.000Z,,,,not measured,,True
7,AP_Screen,2,imported_AP_headphone test,5,2,,,,,,,2,,,,,,,,,,,,two,,,,,,,,,,,,,,,1.0,,,,0.0,,,,,,,,,,,,,,,,,,,,,,,,,,,,,,,,I_S_O,,yes,,,2022-01-17T01:28:09.000Z,352026,group_9,390312,Prediction3/Open2,1,2022-01-17T00:38:59.000Z,,,,not measured,,True
7,AP_Screen,2,imported_AP_headphone test,6,5,,,,,,,5,,,,,,,,,,,,two,,,,,,,,,,,,,,,1.0,,,,0.0,,,,,,,,,,,,,,,,,,,,,,,,,,,,,,,,O_S_I,,yes,,,2022-01-17T01:28:09.000Z,352026,group_9,390312,Prediction3/Open2,1,2022-01-17T00:38:59.000Z,,,,not measured,,True
7,AP_Screen,1,imported_AP_instruction,1,1,,,,,,,1,,,,,,,,,,,,,,,,,,,,,,,,,,,,,,,,,,,,,,,,,,,,,,,,,,,,,,,,,,,,,,,,,yes,,,2022-01-17T01:28:09.000Z,352026,group_9,390312,Prediction3/Open2,1,2022-01-17T00:38:59.000Z,,,,not measured,,True
6,HP_Screen,3,imported_HP Evaluation,1,1,,,,,,,1,,,,,,,,,,,,,,0.0,,,,,,,,,,,,,,,,,,,,,,,,,,,,,,,,,,,,,,,,,,,,,,,,,,,yes,,,2022-01-17T01:28:09.000Z,352026,group_9,390312,Prediction3/Open2,1,2022-01-17T00:38:59.000Z,,,,not measured,,True
6,HP_Screen,2,imported_HP Trials,1,3,,,,,,,1,,,,,,,,,,,,,,0.0,,,"""times=;;;;;;;;;;;;;;;;;---values=;;;;;;;;;;;;;;;;;""",hp6.3.flac,,,,,,,,,,,,,,,,,,,,,,,choice 3,,,,,,,,,,,,,,,,,,,hp6.3.flac,,,,,yes,,,2022-01-17T01:28:09.000Z,352026,group_9,390312,Prediction3/Open2,1,2022-01-17T00:38:59.000Z,,,,not measured,,True
6,HP_Screen,2,imported_HP Trials,2,4,,,,,,,1,,,,,,,,,,,,,,0.0,,,"""times=;;;;;;;;;;;;;;;;;---values=;;;;;;;;;;;;;;;;;""",hp5.2.flac,,,,,,,,,,,,,,,,,,,,,,,choice 2,,,,,,,,,,,,,,,,,,,hp5.2.flac,,,,,yes,,,2022-01-17T01:28:09.000Z,352026,group_9,390312,Prediction3/Open2,1,2022-01-17T00:38:59.000Z,,,,not measured,,True
6,HP_Screen,2,imported_HP Trials,3,5,,,,,,,1,,,,,,,,,,,,,,0.0,,,"""times=;;;;;;;;;;;;;;;;;---values=;;;;;;;;;;;;;;;;;""",hp5.1.flac,,,,,,,,,,,,,,,,,,,,,,,choice 1,,,,,,,,,,,,,,,,,,,hp5.1.flac,,,,,yes,,,2022-01-17T01:28:09.000Z,352026,group_9,390312,Prediction3/Open2,1,2022-01-17T00:38:59.000Z,,,,not measured,,True
6,HP_Screen,2,imported_HP Trials,4,2,,,,,,,1,,,,,,,,,,,,,,0.0,,,"""times=;;;;;;;;;;;;;;;;;---values=;;;;;;;;;;;;;;;;;""",hp1.1.flac,,,,,,,,,,,,,,,,,,,,,,,choice 1,,,,,,,,,,,,,,,,,,,hp1.1.flac,,,,,yes,,,2022-01-17T01:28:09.000Z,352026,group_9,390312,Prediction3/Open2,1,2022-01-17T00:38:59.000Z,,,,not measured,,True
6,HP_Screen,2,imported_HP Trials,5,1,,,,,,,1,,,,,,,,,,,,,,0.0,,,"""times=;;;;;;;;;;;;;;;;;---values=;;;;;;;;;;;;;;;;;""",hp5.3.flac,,,,,,,,,,,,,,,,,,,,,,,choice 3,,,,,,,,,,,,,,,,,,,hp5.3.flac,,,,,yes,,,2022-01-17T01:28:09.000Z,352026,group_9,390312,Prediction3/Open2,1,2022-01-17T00:38:59.000Z,,,,not measured,,True
6,HP_Screen,2,imported_HP Trials,6,6,,,,,,,1,,,,,,,,,,,,,,0.0,,,"""times=;;;;;;;;;;;;;;;;;---values=;;;;;;;;;;;;;;;;;""",hp3.1.flac,,,,,,,,,,,,,,,,,,,,,,,choice 1,,,,,,,,,,,,,,,,,,,hp3.1.flac,,,,,yes,,,2022-01-17T01:28:09.000Z,352026,group_9,390312,Prediction3/Open2,1,2022-01-17T00:38:59.000Z,,,,not measured,,True
6,HP_Screen,1,imported_HP Instructions,1,1,,,,,,,1,,,,,,,,,,,,,,,1.0,,,,,,,,,,,,,,,,,,,,,,,,,,,,,,,,,,,,,,,,,,,,,,,,,,yes,,,2022-01-17T01:28:09.000Z,352026,group_9,390312,Prediction3/Open2,1,2022-01-17T00:38:59.000Z,,,,not measured,,True
4,GenInstructPredOpen,1,InstructionsPredOpen,1,1,,,,,,,1,,,,,,,,,,,,,,,,,,,,,,,,,,,,,,,,,,,,,,,,,,,,,,,,,,,,,,,,,,,,,,,,,yes,,,2022-01-17T01:28:09.000Z,352026,group_9,390312,Prediction3/Open2,1,2022-01-17T00:38:59.000Z,,,,not measured,,True
2,Consent,1,Consent,1,1,,,,,,,1,,,,,,,,,,,,,,,,,,,,,,,,,,,,,,,,,,,,,,,,,,,,,,,,,,,,,,,,,,,,,,,,,yes,,,2022-01-17T01:28:09.000Z,352026,group_9,390312,Prediction3/Open2,1,2022-01-17T00:38:59.000Z,,,,not measured,,True
