Block_Nr,Block_Name,Task_Nr,Task_Name,Trial_Nr,Trial_Id,ab_pitch,age_range,answer,best_instru,choice,clip,Condition_Id,conditions,consent,correct_incorrect_m_2,correct_incorrect_m_3,correct_incorrect_mem_1,correct_incorrect_p_1,correct_incorrect_p_2,correct_incorrect_p_3,correct_incorrect_practice_m,correct_incorrect_practice_p,correctCount,decision,earworm,errorCount,exampleCount,familiarity,fileArray,filePick,Frequenc,genre,genre_3,genre_4,hour,imagery,imagery_2,Instr,isCorrect,listen_time,music_theory,name_instru,nrErrors,num_instru,participant_choice,participant_choice_2,participant_choice2,participant_spacePress,participant_spacePress2,played_notplayed,practice_catseg_scramble,relative_pitch,response,response_seg,response_seg2,response_Time2,responseTime,retestCount,scramble_cat_1,scramble_cat_3,scramble_cat_4,scramble_catseg_4,scramble_level,scramble_m_1,scramble_m_2,scramble_m_3,scramble_open_3,scramble_p_1,scramble_p_2,scramble_p_3,set1response,soundName,strategy,time_atClipStart1,toneSequence,always_fullscreen,completed,crowdsourcing_code,crowdsourcing_subj_id,end_time,exp_subject_id,group_name,rec_session_id,session_name,session_nr,start_time,subj_counter_global,subj_counter_per_group,subject_code,time_delay_offset,time_measure_std,unlocked
13,Post-Survey,1,Post-Survey,1,1,I don't know,14-15,,guitar,,,1,,,,,,,,,,,,,5.0,,,4.0,,,Occasionally,pop rock,country music,classic music,1.5 hours,,3.0,1 year,,5 hours or more ,2 years,guitar,,1.0,,,,,,option_1,,No,,,,,,,,,,,,,,,,,,,,,"I tried to memorize the sequence of a sound and when that sequence ended, i pressed the button",,,,yes,,,2022-01-24T23:10:00.000Z,360662,group_2,400181,Memory2/Open3,1,2022-01-24T22:22:38.000Z,,,,not measured,,True
11,OpenEndedSeg_3,4,OpenEndedSeg_3,1,16,,,,,,,4,,,,,,,,,,,,,,,,,,,,,,,,,,,,,,,,,,,,"""times=1643064340063;1643064350261;1643064360698;1643064374103;1643064388911---values=;10158;20595;34000;48808""","""times=1643064340063;1643064412302;1643064422819;1643064452362;1643064458583---values=;8723;19240;48783;55004""",,,,,,,,,,,,,,,,,,1B,,,,,,,,,,yes,,,2022-01-24T23:10:00.000Z,360662,group_2,400181,Memory2/Open3,1,2022-01-24T22:22:38.000Z,,,,not measured,,True
11,OpenEndedSeg_3,4,OpenEndedSeg_3,2,12,,,,,,,3,,,,,,,,,,,,,,,,,,,,,,,,,,,,,,,,,,,,"""times=1643064467062;1643064475812;1643064482425;1643064491995;1643064500387;1643064505716---values=;8710;15323;24893;33285;38614""","""times=1643064467062;1643064540300;1643064558182;1643064569156;1643064573441;1643064585382;1643064596280---values=;5600;23482;34456;38741;50682;61580""",,,,,,,,,,,,,,,,,,2B,,,,,,,,,,yes,,,2022-01-24T23:10:00.000Z,360662,group_2,400181,Memory2/Open3,1,2022-01-24T22:22:38.000Z,,,,not measured,,True
11,OpenEndedSeg_3,4,OpenEndedSeg_3,3,14,,,,,,,4,,,,,,,,,,,,,,,,,,,,,,,,,,,,,,,,,,,,"""times=1643064602267;1643064609740;1643064619511;1643064629227;1643064640455;1643064649519;1643064653424;1643064665140---values=;7441;17212;26928;38156;47220;51125;62841""","""times=1643064602267;1643064684270;1643064697426;1643064708317;1643064713285;1643064720478---values=;14931;28086;38978;43946;51139""",,,,,,,,,,,,,,,,,,1B,,,,,,,,,,yes,,,2022-01-24T23:10:00.000Z,360662,group_2,400181,Memory2/Open3,1,2022-01-24T22:22:38.000Z,,,,not measured,,True
11,OpenEndedSeg_3,4,OpenEndedSeg_3,4,8,,,,,,,2,,,,,,,,,,,,,,,,,,,,,,,,,,,,,,,,,,,,"""times=1643064736340;1643064752982;1643064763039;1643064783298---values=;16616;26673;46932""","""times=1643064736340;1643064820876;1643064830636;1643064850904---values=;16981;26741;47009""",,,,,,,,,,,,,,,,,,8B,,,,,,,,,,yes,,,2022-01-24T23:10:00.000Z,360662,group_2,400181,Memory2/Open3,1,2022-01-24T22:22:38.000Z,,,,not measured,,True
11,OpenEndedSeg_3,4,OpenEndedSeg_3,5,2,,,,,,,1,,,,,,,,,,,,,,,,,,,,,,,,,,,,,,,,,,,,"""times=1643064871396;1643064881693;1643064903636;1643064929844---values=;10231;32174;58382""","""times=1643064871396;1643064947261;1643064963708;1643064970135;1643064989506;1643064995662---values=;9810;26257;32684;52055;58211""",,,,,,,,,,,,,,,,,,intact,,,,,,,,,,yes,,,2022-01-24T23:10:00.000Z,360662,group_2,400181,Memory2/Open3,1,2022-01-24T22:22:38.000Z,,,,not measured,,True
11,OpenEndedSeg_3,4,OpenEndedSeg_3,6,3,,,,,,,1,,,,,,,,,,,,,,,,,,,,,,,,,,,,,,,,,,,,"""times=1643065003435;1643065012678;1643065027642;1643065030384;1643065064017---values=;9211;24175;26917;60550""","""times=1643065003435;1643065078944;1643065088208;1643065093648;1643065096857;1643065130214---values=;9386;18650;24090;27299;60656""",,,,,,,,,,,,,,,,,,intact,,,,,,,,,,yes,,,2022-01-24T23:10:00.000Z,360662,group_2,400181,Memory2/Open3,1,2022-01-24T22:22:38.000Z,,,,not measured,,True
11,OpenEndedSeg_3,4,OpenEndedSeg_3,7,7,,,,,,,2,,,,,,,,,,,,,,,,,,,,,,,,,,,,,,,,,,,,"""times=1643065135626;1643065150226;1643065161430;1643065168834;1643065183152;1643065193895---values=;14572;25776;33180;47498;58241""","""times=1643065135626;1643065216765;1643065220070;1643065228171;1643065237535;1643065247577;1643065252852;1643065260958---values=;13652;16957;25058;34422;44464;49739;57845""",,,,,,,,,,,,,,,,,,8B,,,,,,,,,,yes,,,2022-01-24T23:10:00.000Z,360662,group_2,400181,Memory2/Open3,1,2022-01-24T22:22:38.000Z,,,,not measured,,True
11,OpenEndedSeg_3,4,OpenEndedSeg_3,8,11,,,,,,,3,,,,,,,,,,,,,,,,,,,,,,,,,,,,,,,,,,,,"""times=1643065270550;1643065280942;1643065284220;1643065288526;1643065297210;1643065303392;1643065307979;1643065319559;1643065328713---values=;10385;13663;17969;26653;32835;37422;49002;58156""","""times=1643065270550;1643065343417;1643065351669;1643065355470;1643065360713;1643065371407;1643065375637;1643065387288;1643065396557---values=;5114;13366;17167;22410;33104;37334;48985;58254""",,,,,,,,,,,,,,,,,,2B,,,,,,,,,,yes,,,2022-01-24T23:10:00.000Z,360662,group_2,400181,Memory2/Open3,1,2022-01-24T22:22:38.000Z,,,,not measured,,True
11,OpenEndedSeg_3,3,Ready?,1,1,,,,,,,1,,,,,,,,,,,,,,,,,,,,,,,,,,,,,,,,,,,,,,,,,,,,,,,,,,,,,,,,,,,,,,,,,yes,,,2022-01-24T23:10:00.000Z,360662,group_2,400181,Memory2/Open3,1,2022-01-24T22:22:38.000Z,,,,not measured,,True
11,OpenEndedSeg_3,2,Practice_OpenEnded,1,1,,,,,,,1,,,,,,,,,,,,,,,,,,,,,,,,,,,,,,,,,,,,"""times=1643064191247;1643064206278;1643064223648;1643064234277;1643064251251---values=11045;26076;43446;54075;71049""","""times=1643064273560;1643064297923;1643064310116;1643064326243---values=17934;42297;54490;70617""",,,,,,,,,,,,,,,,,,,,,,,,,,,,yes,,,2022-01-24T23:10:00.000Z,360662,group_2,400181,Memory2/Open3,1,2022-01-24T22:22:38.000Z,,,,not measured,,True
11,OpenEndedSeg_3,1,Instructions_Open,1,1,,,,,,,1,,,,,,,,,,,,,,,,,,,,,,,,,,,,,,,,,,,,,,,,,,,,,,,,,,,,,,,,,,,,,,,,,yes,,,2022-01-24T23:10:00.000Z,360662,group_2,400181,Memory2/Open3,1,2022-01-24T22:22:38.000Z,,,,not measured,,True
9,Memory 2,4,Memory_2,1,45,,,,,,2_1B_memory_8.mp3,5,,,correct_left,,,,,,,,,,,,,,,,,,,,,,,,,,,,,,,,,,,,,,,,,,,,,,,,,,1B,,,,,,,,,,,,yes,,,2022-01-24T23:10:00.000Z,360662,group_2,400181,Memory2/Open3,1,2022-01-24T22:22:38.000Z,,,,not measured,,True
9,Memory 2,4,Memory_2,2,49,,,,,Second,4_1B_memory_4.mp3,5,,,correct_left,,,,,,,,,,,,,,,,,,,,,,,,,,,,,,,,,,,,,,Incorrect,,,,768.0,,,,,,,,1B,,,,,,,,,,,,yes,,,2022-01-24T23:10:00.000Z,360662,group_2,400181,Memory2/Open3,1,2022-01-24T22:22:38.000Z,,,,not measured,,True
9,Memory 2,4,Memory_2,3,48,,,,,First,4_1B_memory_3.mp3,5,,,correct_left,,,,,,,,,,,,,,,,,,,,,,,,,,,,,,,,,,,,,,Correct,,,,810.0,,,,,,,,1B,,,,,,,,,,,,yes,,,2022-01-24T23:10:00.000Z,360662,group_2,400181,Memory2/Open3,1,2022-01-24T22:22:38.000Z,,,,not measured,,True
9,Memory 2,4,Memory_2,4,12,,,,,Second,2_8B_memory_5.mp3,2,,,incorrect_left,,,,,,,,,,,,,,,,,,,,,,,,,,,,,,,,,,,,,,Correct,,,,936.0,,,,,,,,8B,,,,,,,,,,,,yes,,,2022-01-24T23:10:00.000Z,360662,group_2,400181,Memory2/Open3,1,2022-01-24T22:22:38.000Z,,,,not measured,,True
9,Memory 2,4,Memory_2,5,27,,,,,Second,4_2B_memory_2.mp3,3,,,correct_left,,,,,,,,,,,,,,,,,,,,,,,,,,,,,,,,,,,,,,Incorrect,,,,1046.0,,,,,,,,2B,,,,,,,,,,,,yes,,,2022-01-24T23:10:00.000Z,360662,group_2,400181,Memory2/Open3,1,2022-01-24T22:22:38.000Z,,,,not measured,,True
9,Memory 2,4,Memory_2,6,7,,,,,First,4_8B_memory_2.mp3,1,,,correct_left,,,,,,,,,,,,,,,,,,,,,,,,,,,,,,,,,,,,,,Correct,,,,1190.0,,,,,,,,8B,,,,,,,,,,,,yes,,,2022-01-24T23:10:00.000Z,360662,group_2,400181,Memory2/Open3,1,2022-01-24T22:22:38.000Z,,,,not measured,,True
9,Memory 2,4,Memory_2,7,40,,,,,Second,4_2B_memory_5.mp3,4,,,incorrect_left,,,,,,,,,,,,,,,,,,,,,,,,,,,,,,,,,,,,,,Correct,,,,918.0,,,,,,,,2B,,,,,,,,,,,,yes,,,2022-01-24T23:10:00.000Z,360662,group_2,400181,Memory2/Open3,1,2022-01-24T22:22:38.000Z,,,,not measured,,True
9,Memory 2,4,Memory_2,8,20,,,,,Second,4_8B_memory_5.mp3,2,,,incorrect_left,,,,,,,,,,,,,,,,,,,,,,,,,,,,,,,,,,,,,,Correct,,,,698.0,,,,,,,,8B,,,,,,,,,,,,yes,,,2022-01-24T23:10:00.000Z,360662,group_2,400181,Memory2/Open3,1,2022-01-24T22:22:38.000Z,,,,not measured,,True
9,Memory 2,4,Memory_2,9,60,,,,,Second,4_1B_memory_5.mp3,6,,,incorrect_left,,,,,,,,,,,,,,,,,,,,,,,,,,,,,,,,,,,,,,Correct,,,,903.0,,,,,,,,1B,,,,,,,,,,,,yes,,,2022-01-24T23:10:00.000Z,360662,group_2,400181,Memory2/Open3,1,2022-01-24T22:22:38.000Z,,,,not measured,,True
9,Memory 2,4,Memory_2,10,15,,,,,First,2_8B_memory_8.mp3,2,,,incorrect_left,,,,,,,,,,,,,,,,,,,,,,,,,,,,,,,,,,,,,,Incorrect,,,,838.0,,,,,,,,8B,,,,,,,,,,,,yes,,,2022-01-24T23:10:00.000Z,360662,group_2,400181,Memory2/Open3,1,2022-01-24T22:22:38.000Z,,,,not measured,,True
9,Memory 2,4,Memory_2,11,39,,,,,First,4_2B_memory_4.mp3,4,,,incorrect_left,,,,,,,,,,,,,,,,,,,,,,,,,,,,,,,,,,,,,,Incorrect,,,,855.0,,,,,,,,2B,,,,,,,,,,,,yes,,,2022-01-24T23:10:00.000Z,360662,group_2,400181,Memory2/Open3,1,2022-01-24T22:22:38.000Z,,,,not measured,,True
9,Memory 2,4,Memory_2,12,56,,,,,First,4_1B_memory_1.mp3,6,,,incorrect_left,,,,,,,,,,,,,,,,,,,,,,,,,,,,,,,,,,,,,,Incorrect,,,,791.0,,,,,,,,1B,,,,,,,,,,,,yes,,,2022-01-24T23:10:00.000Z,360662,group_2,400181,Memory2/Open3,1,2022-01-24T22:22:38.000Z,,,,not measured,,True
9,Memory 2,4,Memory_2,13,13,,,,,Second,2_8B_memory_6.mp3,2,,,incorrect_left,,,,,,,,,,,,,,,,,,,,,,,,,,,,,,,,,,,,,,Correct,,,,1464.0,,,,,,,,8B,,,,,,,,,,,,yes,,,2022-01-24T23:10:00.000Z,360662,group_2,400181,Memory2/Open3,1,2022-01-24T22:22:38.000Z,,,,not measured,,True
9,Memory 2,4,Memory_2,14,25,,,,,Second,2_2B_memory_8.mp3,3,,,correct_left,,,,,,,,,,,,,,,,,,,,,,,,,,,,,,,,,,,,,,Incorrect,,,,592.0,,,,,,,,2B,,,,,,,,,,,,yes,,,2022-01-24T23:10:00.000Z,360662,group_2,400181,Memory2/Open3,1,2022-01-24T22:22:38.000Z,,,,not measured,,True
9,Memory 2,4,Memory_2,15,36,,,,,Second,4_2B_memory_1.mp3,4,,,incorrect_left,,,,,,,,,,,,,,,,,,,,,,,,,,,,,,,,,,,,,,Correct,,,,643.0,,,,,,,,2B,,,,,,,,,,,,yes,,,2022-01-24T23:10:00.000Z,360662,group_2,400181,Memory2/Open3,1,2022-01-24T22:22:38.000Z,,,,not measured,,True
9,Memory 2,4,Memory_2,16,34,,,,,First,2_2B_memory_7.mp3,4,,,incorrect_left,,,,,,,,,,,,,,,,,,,,,,,,,,,,,,,,,,,,,,Incorrect,,,,1867.0,,,,,,,,2B,,,,,,,,,,,,yes,,,2022-01-24T23:10:00.000Z,360662,group_2,400181,Memory2/Open3,1,2022-01-24T22:22:38.000Z,,,,not measured,,True
9,Memory 2,4,Memory_2,17,31,,,,,First,2_2B_memory_4.mp3,4,,,incorrect_left,,,,,,,,,,,,,,,,,,,,,,,,,,,,,,,,,,,,,,Incorrect,,,,796.0,,,,,,,,2B,,,,,,,,,,,,yes,,,2022-01-24T23:10:00.000Z,360662,group_2,400181,Memory2/Open3,1,2022-01-24T22:22:38.000Z,,,,not measured,,True
9,Memory 2,4,Memory_2,18,23,,,,,First,2_2B_memory_6.mp3,3,,,correct_left,,,,,,,,,,,,,,,,,,,,,,,,,,,,,,,,,,,,,,Correct,,,,750.0,,,,,,,,2B,,,,,,,,,,,,yes,,,2022-01-24T23:10:00.000Z,360662,group_2,400181,Memory2/Open3,1,2022-01-24T22:22:38.000Z,,,,not measured,,True
9,Memory 2,4,Memory_2,19,44,,,,,First,2_1B_memory_7.mp3,5,,,correct_left,,,,,,,,,,,,,,,,,,,,,,,,,,,,,,,,,,,,,,Correct,,,,906.0,,,,,,,,1B,,,,,,,,,,,,yes,,,2022-01-24T23:10:00.000Z,360662,group_2,400181,Memory2/Open3,1,2022-01-24T22:22:38.000Z,,,,not measured,,True
9,Memory 2,4,Memory_2,20,16,,,,,Second,4_8B_memory_1.mp3,2,,,incorrect_left,,,,,,,,,,,,,,,,,,,,,,,,,,,,,,,,,,,,,,Correct,,,,695.0,,,,,,,,8B,,,,,,,,,,,,yes,,,2022-01-24T23:10:00.000Z,360662,group_2,400181,Memory2/Open3,1,2022-01-24T22:22:38.000Z,,,,not measured,,True
9,Memory 2,4,Memory_2,21,4,,,,,First,2_8B_memory_7.mp3,1,,,correct_left,,,,,,,,,,,,,,,,,,,,,,,,,,,,,,,,,,,,,,Correct,,,,877.0,,,,,,,,8B,,,,,,,,,,,,yes,,,2022-01-24T23:10:00.000Z,360662,group_2,400181,Memory2/Open3,1,2022-01-24T22:22:38.000Z,,,,not measured,,True
9,Memory 2,4,Memory_2,22,8,,,,,First,4_8B_memory_3.mp3,1,,,correct_left,,,,,,,,,,,,,,,,,,,,,,,,,,,,,,,,,,,,,,Correct,,,,1364.0,,,,,,,,8B,,,,,,,,,,,,yes,,,2022-01-24T23:10:00.000Z,360662,group_2,400181,Memory2/Open3,1,2022-01-24T22:22:38.000Z,,,,not measured,,True
9,Memory 2,4,Memory_2,23,1,,,,,First,2_8B_memory_4.mp3,1,,,correct_left,,,,,,,,,,,,,,,,,,,,,,,,,,,,,,,,,,,,,,Correct,,,,783.0,,,,,,,,8B,,,,,,,,,,,,yes,,,2022-01-24T23:10:00.000Z,360662,group_2,400181,Memory2/Open3,1,2022-01-24T22:22:38.000Z,,,,not measured,,True
9,Memory 2,4,Memory_2,24,57,,,,,First,4_1B_memory_2.mp3,6,,,incorrect_left,,,,,,,,,,,,,,,,,,,,,,,,,,,,,,,,,,,,,,Incorrect,,,,1144.0,,,,,,,,1B,,,,,,,,,,,,yes,,,2022-01-24T23:10:00.000Z,360662,group_2,400181,Memory2/Open3,1,2022-01-24T22:22:38.000Z,,,,not measured,,True
9,Memory 2,4,Memory_2,25,9,,,,,Second,4_8B_memory_4.mp3,1,,,correct_left,,,,,,,,,,,,,,,,,,,,,,,,,,,,,,,,,,,,,,Incorrect,,,,645.0,,,,,,,,8B,,,,,,,,,,,,yes,,,2022-01-24T23:10:00.000Z,360662,group_2,400181,Memory2/Open3,1,2022-01-24T22:22:38.000Z,,,,not measured,,True
9,Memory 2,4,Memory_2,26,43,,,,,Second,2_1B_memory_6.mp3,5,,,correct_left,,,,,,,,,,,,,,,,,,,,,,,,,,,,,,,,,,,,,,Incorrect,,,,1477.0,,,,,,,,1B,,,,,,,,,,,,yes,,,2022-01-24T23:10:00.000Z,360662,group_2,400181,Memory2/Open3,1,2022-01-24T22:22:38.000Z,,,,not measured,,True
9,Memory 2,4,Memory_2,27,22,,,,,First,2_2B_memory_5.mp3,3,,,correct_left,,,,,,,,,,,,,,,,,,,,,,,,,,,,,,,,,,,,,,Correct,,,,738.0,,,,,,,,2B,,,,,,,,,,,,yes,,,2022-01-24T23:10:00.000Z,360662,group_2,400181,Memory2/Open3,1,2022-01-24T22:22:38.000Z,,,,not measured,,True
9,Memory 2,4,Memory_2,28,28,,,,,First,4_2B_memory_3.mp3,3,,,correct_left,,,,,,,,,,,,,,,,,,,,,,,,,,,,,,,,,,,,,,Correct,,,,615.0,,,,,,,,2B,,,,,,,,,,,,yes,,,2022-01-24T23:10:00.000Z,360662,group_2,400181,Memory2/Open3,1,2022-01-24T22:22:38.000Z,,,,not measured,,True
9,Memory 2,4,Memory_2,29,52,,,,,Second,2_1B_memory_5.mp3,6,,,incorrect_left,,,,,,,,,,,,,,,,,,,,,,,,,,,,,,,,,,,,,,Correct,,,,856.0,,,,,,,,1B,,,,,,,,,,,,yes,,,2022-01-24T23:10:00.000Z,360662,group_2,400181,Memory2/Open3,1,2022-01-24T22:22:38.000Z,,,,not measured,,True
9,Memory 2,4,Memory_2,30,51,,,,,First,2_1B_memory_4.mp3,6,,,incorrect_left,,,,,,,,,,,,,,,,,,,,,,,,,,,,,,,,,,,,,,Incorrect,,,,1017.0,,,,,,,,1B,,,,,,,,,,,,yes,,,2022-01-24T23:10:00.000Z,360662,group_2,400181,Memory2/Open3,1,2022-01-24T22:22:38.000Z,,,,not measured,,True
9,Memory 2,3,Ready?,1,1,,,,,,,1,,,,,,,,,,,,,,,,,,,,,,,,,,,,,,,,,,,,,,,,,,,,,,,,,,,,,,,,,,,,,,,,,yes,,,2022-01-24T23:10:00.000Z,360662,group_2,400181,Memory2/Open3,1,2022-01-24T22:22:38.000Z,,,,not measured,,True
9,Memory 2,2,Practice_Memory,1,2,,,,,First,,1,,,,,,,,,correct_incorrect,,,,,,,,,,,,,,,,,,,,,,,,,,,,,,,,Correct,,,,1847.0,,,,,,,,,,,,,,,,,,,,yes,,,2022-01-24T23:10:00.000Z,360662,group_2,400181,Memory2/Open3,1,2022-01-24T22:22:38.000Z,,,,not measured,,True
9,Memory 2,2,Practice_Memory,2,3,,,,,Second,,1,,,,,,,,,correct_incorrect,,,,,,,,,,,,,,,,,,,,,,,,,,,,,,,,Incorrect,,,,1418.0,,,,,,,,,,,,,,,,,,,,yes,,,2022-01-24T23:10:00.000Z,360662,group_2,400181,Memory2/Open3,1,2022-01-24T22:22:38.000Z,,,,not measured,,True
9,Memory 2,2,Practice_Memory,3,1,,,,,First,,1,,,,,,,,,correct_incorrect,,,,,,,,,,,,,,,,,,,,,,,,,,,,,,,,Correct,,,,2188.0,,,,,,,,,,,,,,,,,,,,yes,,,2022-01-24T23:10:00.000Z,360662,group_2,400181,Memory2/Open3,1,2022-01-24T22:22:38.000Z,,,,not measured,,True
9,Memory 2,1,Instructions_Memory,1,1,,,,,,,1,,,,,,,,,,,,,,,,,,,,,,,,,,,,,,,,,,,,,,,,,,,,,,,,,,,,,,,,,,,,,,,,,yes,,,2022-01-24T23:10:00.000Z,360662,group_2,400181,Memory2/Open3,1,2022-01-24T22:22:38.000Z,,,,not measured,,True
7,HP_Screen,3,imported_HP Evaluation,1,1,,,,,,,1,,,,,,,,,,,,,,0.0,,,,,,,,,,,,,,,,,,,,,,,,,,,,,,,,,,,,,,,,,,,,,,,,,,,yes,,,2022-01-24T23:10:00.000Z,360662,group_2,400181,Memory2/Open3,1,2022-01-24T22:22:38.000Z,,,,not measured,,True
7,HP_Screen,2,imported_HP Trials,1,1,,,,,,,1,,,,,,,,,,,,,,0.0,,,"""times=;;;;;;;;;;;;;;;;;---values=;;;;;;;;;;;;;;;;;""",hp3.3.flac,,,,,,,,,,,,,,,,,,,,,,,choice 3,,,,,,,,,,,,,,,,,,,hp3.3.flac,,,,,yes,,,2022-01-24T23:10:00.000Z,360662,group_2,400181,Memory2/Open3,1,2022-01-24T22:22:38.000Z,,,,not measured,,True
7,HP_Screen,2,imported_HP Trials,2,5,,,,,,,1,,,,,,,,,,,,,,0.0,,,"""times=;;;;;;;;;;;;;;;;;---values=;;;;;;;;;;;;;;;;;""",hp6.2.flac,,,,,,,,,,,,,,,,,,,,,,,choice 2,,,,,,,,,,,,,,,,,,,hp6.2.flac,,,,,yes,,,2022-01-24T23:10:00.000Z,360662,group_2,400181,Memory2/Open3,1,2022-01-24T22:22:38.000Z,,,,not measured,,True
7,HP_Screen,2,imported_HP Trials,3,4,,,,,,,1,,,,,,,,,,,,,,0.0,,,"""times=;;;;;;;;;;;;;;;;;---values=;;;;;;;;;;;;;;;;;""",hp5.3.flac,,,,,,,,,,,,,,,,,,,,,,,choice 3,,,,,,,,,,,,,,,,,,,hp5.3.flac,,,,,yes,,,2022-01-24T23:10:00.000Z,360662,group_2,400181,Memory2/Open3,1,2022-01-24T22:22:38.000Z,,,,not measured,,True
7,HP_Screen,2,imported_HP Trials,4,6,,,,,,,1,,,,,,,,,,,,,,0.0,,,"""times=;;;;;;;;;;;;;;;;;---values=;;;;;;;;;;;;;;;;;""",hp4.1.flac,,,,,,,,,,,,,,,,,,,,,,,choice 1,,,,,,,,,,,,,,,,,,,hp4.1.flac,,,,,yes,,,2022-01-24T23:10:00.000Z,360662,group_2,400181,Memory2/Open3,1,2022-01-24T22:22:38.000Z,,,,not measured,,True
7,HP_Screen,2,imported_HP Trials,5,3,,,,,,,1,,,,,,,,,,,,,,0.0,,,"""times=;;;;;;;;;;;;;;;;;---values=;;;;;;;;;;;;;;;;;""",hp2.2.flac,,,,,,,,,,,,,,,,,,,,,,,choice 2,,,,,,,,,,,,,,,,,,,hp2.2.flac,,,,,yes,,,2022-01-24T23:10:00.000Z,360662,group_2,400181,Memory2/Open3,1,2022-01-24T22:22:38.000Z,,,,not measured,,True
7,HP_Screen,2,imported_HP Trials,6,2,,,,,,,1,,,,,,,,,,,,,,0.0,,,"""times=;;;;;;;;;;;;;;;;;---values=;;;;;;;;;;;;;;;;;""",hp6.1.flac,,,,,,,,,,,,,,,,,,,,,,,choice 1,,,,,,,,,,,,,,,,,,,hp6.1.flac,,,,,yes,,,2022-01-24T23:10:00.000Z,360662,group_2,400181,Memory2/Open3,1,2022-01-24T22:22:38.000Z,,,,not measured,,True
7,HP_Screen,1,imported_HP Instructions,1,1,,,,,,,1,,,,,,,,,,,,,,,1.0,,,,,,,,,,,,,,,,,,,,,,,,,,,,,,,,,,,,,,,,,,,,,,,,,,yes,,,2022-01-24T23:10:00.000Z,360662,group_2,400181,Memory2/Open3,1,2022-01-24T22:22:38.000Z,,,,not measured,,True
6,AP_Screen,3,imported_AP_eval,1,1,,,,,,,1,,,,,,,,,,,,,,,,,,,,,,,,,,,,,,,0.0,,,,,,,,,,,,,,,,,,,,,,,,,,,,,,,,,,yes,,,2022-01-24T23:10:00.000Z,360662,group_2,400181,Memory2/Open3,1,2022-01-24T22:22:38.000Z,,,,not measured,,True
6,AP_Screen,2,imported_AP_headphone test,1,3,,,,,,,3,,,,,,,,,,,,one,,,,,,,,,,,,,,,1.0,,,,0.0,,,,,,,,,,,,,,,,,,,,,,,,,,,,,,,,S_O_I,,yes,,,2022-01-24T23:10:00.000Z,360662,group_2,400181,Memory2/Open3,1,2022-01-24T22:22:38.000Z,,,,not measured,,True
6,AP_Screen,2,imported_AP_headphone test,2,1,,,,,,,1,,,,,,,,,,,,three,,,,,,,,,,,,,,,1.0,,,,0.0,,,,,,,,,,,,,,,,,,,,,,,,,,,,,,,,I_O_S,,yes,,,2022-01-24T23:10:00.000Z,360662,group_2,400181,Memory2/Open3,1,2022-01-24T22:22:38.000Z,,,,not measured,,True
6,AP_Screen,2,imported_AP_headphone test,3,5,,,,,,,5,,,,,,,,,,,,two,,,,,,,,,,,,,,,1.0,,,,0.0,,,,,,,,,,,,,,,,,,,,,,,,,,,,,,,,O_S_I,,yes,,,2022-01-24T23:10:00.000Z,360662,group_2,400181,Memory2/Open3,1,2022-01-24T22:22:38.000Z,,,,not measured,,True
6,AP_Screen,2,imported_AP_headphone test,4,4,,,,,,,4,,,,,,,,,,,,one,,,,,,,,,,,,,,,1.0,,,,0.0,,,,,,,,,,,,,,,,,,,,,,,,,,,,,,,,S_I_O,,yes,,,2022-01-24T23:10:00.000Z,360662,group_2,400181,Memory2/Open3,1,2022-01-24T22:22:38.000Z,,,,not measured,,True
6,AP_Screen,2,imported_AP_headphone test,5,2,,,,,,,2,,,,,,,,,,,,two,,,,,,,,,,,,,,,1.0,,,,0.0,,,,,,,,,,,,,,,,,,,,,,,,,,,,,,,,I_S_O,,yes,,,2022-01-24T23:10:00.000Z,360662,group_2,400181,Memory2/Open3,1,2022-01-24T22:22:38.000Z,,,,not measured,,True
6,AP_Screen,2,imported_AP_headphone test,6,6,,,,,,,6,,,,,,,,,,,,three,,,,,,,,,,,,,,,1.0,,,,0.0,,,,,,,,,,,,,,,,,,,,,,,,,,,,,,,,O_I_S,,yes,,,2022-01-24T23:10:00.000Z,360662,group_2,400181,Memory2/Open3,1,2022-01-24T22:22:38.000Z,,,,not measured,,True
6,AP_Screen,1,imported_AP_instruction,1,1,,,,,,,1,,,,,,,,,,,,,,,,,,,,,,,,,,,,,,,,,,,,,,,,,,,,,,,,,,,,,,,,,,,,,,,,,yes,,,2022-01-24T23:10:00.000Z,360662,group_2,400181,Memory2/Open3,1,2022-01-24T22:22:38.000Z,,,,not measured,,True
4,GenInstructMemOpen,1,InstructionsMemOpen,1,1,,,,,,,1,,,,,,,,,,,,,,,,,,,,,,,,,,,,,,,,,,,,,,,,,,,,,,,,,,,,,,,,,,,,,,,,,yes,,,2022-01-24T23:10:00.000Z,360662,group_2,400181,Memory2/Open3,1,2022-01-24T22:22:38.000Z,,,,not measured,,True
2,Consent,1,Consent,1,1,,,,,,,1,,,,,,,,,,,,,,,,,,,,,,,,,,,,,,,,,,,,,,,,,,,,,,,,,,,,,,,,,,,,,,,,,yes,,,2022-01-24T23:10:00.000Z,360662,group_2,400181,Memory2/Open3,1,2022-01-24T22:22:38.000Z,,,,not measured,,True
