Block_Nr,Block_Name,Task_Nr,Task_Name,Trial_Nr,Trial_Id,ab_pitch,age_range,answer,best_instru,choice,clip,Condition_Id,conditions,consent,correct_incorrect_m_2,correct_incorrect_m_3,correct_incorrect_mem_1,correct_incorrect_p_1,correct_incorrect_p_2,correct_incorrect_p_3,correct_incorrect_practice_m,correct_incorrect_practice_p,correctCount,decision,earworm,errorCount,exampleCount,familiarity,fileArray,filePick,Frequenc,genre,genre_3,genre_4,hour,imagery,imagery_2,Instr,isCorrect,listen_time,music_theory,name_instru,nrErrors,num_instru,participant_choice,participant_choice_2,participant_choice2,participant_spacePress,participant_spacePress2,played_notplayed,practice_catseg_scramble,relative_pitch,response,response_seg,response_seg2,response_Time2,responseTime,retestCount,scramble_cat_1,scramble_cat_3,scramble_cat_4,scramble_catseg_4,scramble_level,scramble_m_1,scramble_m_2,scramble_m_3,scramble_open_3,scramble_p_1,scramble_p_2,scramble_p_3,set1response,soundName,strategy,time_atClipStart1,toneSequence,always_fullscreen,completed,crowdsourcing_code,crowdsourcing_subj_id,end_time,exp_subject_id,group_name,rec_session_id,session_name,session_nr,start_time,subj_counter_global,subj_counter_per_group,subject_code,time_delay_offset,time_measure_std,unlocked
13,Post-Survey,1,Post-Survey,1,1,Yes,2022-09-17,,Electric guitar,,,1,,,,,,,,,,,,,5.0,,,2.0,,,Occasionally,Heavy metal (including subgenres),Alternative rock (including subgenres),Synthpop,2 hours,,5.0,10 or more years,,60-90 min,6-9 years,"Guitar (both electric and acoustic), electric bass guitar and the piano",,3.0,,,,,,option_1,,Yes,,,,,,,,,,,,,,,,,,,,,I listened thoroughly to each piece and tried to locate and identify any important changes to the melody,,,,yes,,,2022-01-25T16:35:49.000Z,361511,group_3,401960,Memory3/Open2,1,2022-01-25T15:51:41.000Z,,,,not measured,,True
11,OpenEndedSeg_2,4,OpenEndedSeg_2,1,6,,,,,,,2,,,,,,,,,,,,,,,,,,,,,,,,,,,,,,,,,,,,"""times=1643127261015;1643127287287;1643127303438---values=9863;36135;52286""","""times=1643127251051;1643127321726;1643127369711;1643127384214---values=;3680;51665;66168""",,,,,,,,,,,,,,8B,,,,,,,,,,,,,,yes,,,2022-01-25T16:35:49.000Z,361511,group_3,401960,Memory3/Open2,1,2022-01-25T15:51:41.000Z,,,,not measured,,True
11,OpenEndedSeg_2,4,OpenEndedSeg_2,2,8,,,,,,,2,,,,,,,,,,,,,,,,,,,,,,,,,,,,,,,,,,,,"""times=1643127385508;1643127387877;1643127440279---values=;2365;54766""","""times=1643127385508;1643127503959;1643127504566---values=;51063;51670""",,,,,,,,,,,,,,8B,,,,,,,,,,,,,,yes,,,2022-01-25T16:35:49.000Z,361511,group_3,401960,Memory3/Open2,1,2022-01-25T15:51:41.000Z,,,,not measured,,True
11,OpenEndedSeg_2,4,OpenEndedSeg_2,3,9,,,,,,,3,,,,,,,,,,,,,,,,,,,,,,,,,,,,,,,,,,,,"""times=1643127520626;1643127538990---values=;18360""","""times=1643127520626;1643127596207---values=;16618""",,,,,,,,,,,,,,2B,,,,,,,,,,,,,,yes,,,2022-01-25T16:35:49.000Z,361511,group_3,401960,Memory3/Open2,1,2022-01-25T15:51:41.000Z,,,,not measured,,True
11,OpenEndedSeg_2,4,OpenEndedSeg_2,4,14,,,,,,,4,,,,,,,,,,,,,,,,,,,,,,,,,,,,,,,,,,,,"""times=1643127638928;1643127670999---values=;32063""","""times=1643127638928;1643127733015---values=;33022""",,,,,,,,,,,,,,1B,,,,,,,,,,,,,,yes,,,2022-01-25T16:35:49.000Z,361511,group_3,401960,Memory3/Open2,1,2022-01-25T15:51:41.000Z,,,,not measured,,True
11,OpenEndedSeg_2,4,OpenEndedSeg_2,5,15,,,,,,,4,,,,,,,,,,,,,,,,,,,,,,,,,,,,,,,,,,,,"""times=1643127761439;1643127794252;1643127819214---values=;32810;57772""","""times=1643127761439;1643127853518---values=;31168""",,,,,,,,,,,,,,1B,,,,,,,,,,,,,,yes,,,2022-01-25T16:35:49.000Z,361511,group_3,401960,Memory3/Open2,1,2022-01-25T15:51:41.000Z,,,,not measured,,True
11,OpenEndedSeg_2,4,OpenEndedSeg_2,6,1,,,,,,,1,,,,,,,,,,,,,,,,,,,,,,,,,,,,,,,,,,,,"""times=1643127883580;1643127905940;1643127919887---values=;22356;36303""","""times=1643127883580;1643127987493---values=;35197""",,,,,,,,,,,,,,intact,,,,,,,,,,,,,,yes,,,2022-01-25T16:35:49.000Z,361511,group_3,401960,Memory3/Open2,1,2022-01-25T15:51:41.000Z,,,,not measured,,True
11,OpenEndedSeg_2,4,OpenEndedSeg_2,7,10,,,,,,,3,,,,,,,,,,,,,,,,,,,,,,,,,,,,,,,,,,,,"""times=1643128021393;1643128047110;1643128077782---values=;25712;56384""","""times=1643128021393;1643128115254---values=;30894""",,,,,,,,,,,,,,2B,,,,,,,,,,,,,,yes,,,2022-01-25T16:35:49.000Z,361511,group_3,401960,Memory3/Open2,1,2022-01-25T15:51:41.000Z,,,,not measured,,True
11,OpenEndedSeg_2,4,OpenEndedSeg_2,8,3,,,,,,,1,,,,,,,,,,,,,,,,,,,,,,,,,,,,,,,,,,,,"""times=1643128147652---values=""","""times=1643128147652;1643128246174---values=;48001""",,,,,,,,,,,,,,intact,,,,,,,,,,,,,,yes,,,2022-01-25T16:35:49.000Z,361511,group_3,401960,Memory3/Open2,1,2022-01-25T15:51:41.000Z,,,,not measured,,True
11,OpenEndedSeg_2,3,Ready?,1,1,,,,,,,1,,,,,,,,,,,,,,,,,,,,,,,,,,,,,,,,,,,,,,,,,,,,,,,,,,,,,,,,,,,,,,,,,yes,,,2022-01-25T16:35:49.000Z,361511,group_3,401960,Memory3/Open2,1,2022-01-25T15:51:41.000Z,,,,not measured,,True
11,OpenEndedSeg_2,2,Practice_OpenEnded,1,1,,,,,,,1,,,,,,,,,,,,,,,,,,,,,,,,,,,,,,,,,,,,,"""times=1643127172092---values=4364""",,,,,,,,,,,,,,,,,,,,,,,,,,,,yes,,,2022-01-25T16:35:49.000Z,361511,group_3,401960,Memory3/Open2,1,2022-01-25T15:51:41.000Z,,,,not measured,,True
11,OpenEndedSeg_2,1,Instructions_Open,1,1,,,,,,,1,,,,,,,,,,,,,,,,,,,,,,,,,,,,,,,,,,,,,,,,,,,,,,,,,,,,,,,,,,,,,,,,,yes,,,2022-01-25T16:35:49.000Z,361511,group_3,401960,Memory3/Open2,1,2022-01-25T15:51:41.000Z,,,,not measured,,True
9,Memory3,4,Memory_3,1,28,,,,,First,4_2B_memory_7.mp3,3,,,,correct_left,,,,,,,,,,,,,,,,,,,,,,,,,,,,,,,,,,,,,Correct,,,,587.0,,,,,,,,,2B,,,,,,,,,,,yes,,,2022-01-25T16:35:49.000Z,361511,group_3,401960,Memory3/Open2,1,2022-01-25T15:51:41.000Z,,,,not measured,,True
9,Memory3,4,Memory_3,2,48,,,,,Second,4_1B_memory_7.mp3,5,,,,correct_left,,,,,,,,,,,,,,,,,,,,,,,,,,,,,,,,,,,,,Incorrect,,,,698.0,,,,,,,,,1B,,,,,,,,,,,yes,,,2022-01-25T16:35:49.000Z,361511,group_3,401960,Memory3/Open2,1,2022-01-25T15:51:41.000Z,,,,not measured,,True
9,Memory3,4,Memory_3,3,53,,,,,First,3_1B_memory_8.mp3,6,,,,incorrect_left,,,,,,,,,,,,,,,,,,,,,,,,,,,,,,,,,,,,,Incorrect,,,,615.0,,,,,,,,,1B,,,,,,,,,,,yes,,,2022-01-25T16:35:49.000Z,361511,group_3,401960,Memory3/Open2,1,2022-01-25T15:51:41.000Z,,,,not measured,,True
9,Memory3,4,Memory_3,4,11,,,,,Second,3_8B_memory_6.mp3,2,,,,incorrect_left,,,,,,,,,,,,,,,,,,,,,,,,,,,,,,,,,,,,,Correct,,,,575.0,,,,,,,,,8B,,,,,,,,,,,yes,,,2022-01-25T16:35:49.000Z,361511,group_3,401960,Memory3/Open2,1,2022-01-25T15:51:41.000Z,,,,not measured,,True
9,Memory3,4,Memory_3,5,56,,,,,First,4_1B_memory_5.mp3,6,,,,incorrect_left,,,,,,,,,,,,,,,,,,,,,,,,,,,,,,,,,,,,,Incorrect,,,,448.0,,,,,,,,,1B,,,,,,,,,,,yes,,,2022-01-25T16:35:49.000Z,361511,group_3,401960,Memory3/Open2,1,2022-01-25T15:51:41.000Z,,,,not measured,,True
9,Memory3,4,Memory_3,6,3,,,,,First,3_8B_memory_8.mp3,1,,,,correct_left,,,,,,,,,,,,,,,,,,,,,,,,,,,,,,,,,,,,,Correct,,,,474.0,,,,,,,,,8B,,,,,,,,,,,yes,,,2022-01-25T16:35:49.000Z,361511,group_3,401960,Memory3/Open2,1,2022-01-25T15:51:41.000Z,,,,not measured,,True
9,Memory3,4,Memory_3,7,21,,,,,First,3_2B_memory_6.mp3,3,,,,correct_left,,,,,,,,,,,,,,,,,,,,,,,,,,,,,,,,,,,,,Correct,,,,581.0,,,,,,,,,2B,,,,,,,,,,,yes,,,2022-01-25T16:35:49.000Z,361511,group_3,401960,Memory3/Open2,1,2022-01-25T15:51:41.000Z,,,,not measured,,True
9,Memory3,4,Memory_3,8,6,,,,,First,4_8B_memory_5.mp3,1,,,,correct_left,,,,,,,,,,,,,,,,,,,,,,,,,,,,,,,,,,,,,Correct,,,,407.0,,,,,,,,,8B,,,,,,,,,,,yes,,,2022-01-25T16:35:49.000Z,361511,group_3,401960,Memory3/Open2,1,2022-01-25T15:51:41.000Z,,,,not measured,,True
9,Memory3,4,Memory_3,9,30,,,,,First,4_2B_memory_9.mp3,3,,,,correct_left,,,,,,,,,,,,,,,,,,,,,,,,,,,,,,,,,,,,,Correct,,,,508.0,,,,,,,,,2B,,,,,,,,,,,yes,,,2022-01-25T16:35:49.000Z,361511,group_3,401960,Memory3/Open2,1,2022-01-25T15:51:41.000Z,,,,not measured,,True
9,Memory3,4,Memory_3,10,39,,,,,Second,4_2B_memory_8.mp3,4,,,,incorrect_left,,,,,,,,,,,,,,,,,,,,,,,,,,,,,,,,,,,,,Correct,,,,448.0,,,,,,,,,2B,,,,,,,,,,,yes,,,2022-01-25T16:35:49.000Z,361511,group_3,401960,Memory3/Open2,1,2022-01-25T15:51:41.000Z,,,,not measured,,True
9,Memory3,4,Memory_3,11,24,,,,,First,3_2B_memory_9.mp3,3,,,,correct_left,,,,,,,,,,,,,,,,,,,,,,,,,,,,,,,,,,,,,Correct,,,,485.0,,,,,,,,,2B,,,,,,,,,,,yes,,,2022-01-25T16:35:49.000Z,361511,group_3,401960,Memory3/Open2,1,2022-01-25T15:51:41.000Z,,,,not measured,,True
9,Memory3,4,Memory_3,12,50,,,,,First,4_1B_memory_9.mp3,5,,,,correct_left,,,,,,,,,,,,,,,,,,,,,,,,,,,,,,,,,,,,,Correct,,,,519.0,,,,,,,,,1B,,,,,,,,,,,yes,,,2022-01-25T16:35:49.000Z,361511,group_3,401960,Memory3/Open2,1,2022-01-25T15:51:41.000Z,,,,not measured,,True
9,Memory3,4,Memory_3,13,4,,,,,First,3_8B_memory_9.mp3,1,,,,correct_left,,,,,,,,,,,,,,,,,,,,,,,,,,,,,,,,,,,,,Correct,,,,557.0,,,,,,,,,8B,,,,,,,,,,,yes,,,2022-01-25T16:35:49.000Z,361511,group_3,401960,Memory3/Open2,1,2022-01-25T15:51:41.000Z,,,,not measured,,True
9,Memory3,4,Memory_3,14,32,,,,,First,3_2B_memory_7.mp3,4,,,,incorrect_left,,,,,,,,,,,,,,,,,,,,,,,,,,,,,,,,,,,,,Incorrect,,,,579.0,,,,,,,,,2B,,,,,,,,,,,yes,,,2022-01-25T16:35:49.000Z,361511,group_3,401960,Memory3/Open2,1,2022-01-25T15:51:41.000Z,,,,not measured,,True
9,Memory3,4,Memory_3,15,10,,,,,Second,4_8B_memory_9.mp3,1,,,,correct_left,,,,,,,,,,,,,,,,,,,,,,,,,,,,,,,,,,,,,Incorrect,,,,755.0,,,,,,,,,8B,,,,,,,,,,,yes,,,2022-01-25T16:35:49.000Z,361511,group_3,401960,Memory3/Open2,1,2022-01-25T15:51:41.000Z,,,,not measured,,True
9,Memory3,4,Memory_3,16,18,,,,,Second,4_8B_memory_7.mp3,2,,,,incorrect_left,,,,,,,,,,,,,,,,,,,,,,,,,,,,,,,,,,,,,Correct,,,,1292.0,,,,,,,,,8B,,,,,,,,,,,yes,,,2022-01-25T16:35:49.000Z,361511,group_3,401960,Memory3/Open2,1,2022-01-25T15:51:41.000Z,,,,not measured,,True
9,Memory3,4,Memory_3,17,2,,,,,First,3_8B_memory_7.mp3,1,,,,correct_left,,,,,,,,,,,,,,,,,,,,,,,,,,,,,,,,,,,,,Correct,,,,488.0,,,,,,,,,8B,,,,,,,,,,,yes,,,2022-01-25T16:35:49.000Z,361511,group_3,401960,Memory3/Open2,1,2022-01-25T15:51:41.000Z,,,,not measured,,True
9,Memory3,4,Memory_3,18,25,,,,,Second,3_2B_memory_10.mp3,3,,,,correct_left,,,,,,,,,,,,,,,,,,,,,,,,,,,,,,,,,,,,,Incorrect,,,,1261.0,,,,,,,,,2B,,,,,,,,,,,yes,,,2022-01-25T16:35:49.000Z,361511,group_3,401960,Memory3/Open2,1,2022-01-25T15:51:41.000Z,,,,not measured,,True
9,Memory3,4,Memory_3,19,59,,,,,First,4_1B_memory_8.mp3,6,,,,incorrect_left,,,,,,,,,,,,,,,,,,,,,,,,,,,,,,,,,,,,,Incorrect,,,,428.0,,,,,,,,,1B,,,,,,,,,,,yes,,,2022-01-25T16:35:49.000Z,361511,group_3,401960,Memory3/Open2,1,2022-01-25T15:51:41.000Z,,,,not measured,,True
9,Memory3,4,Memory_3,20,19,,,,,Second,4_8B_memory_8.mp3,2,,,,incorrect_left,,,,,,,,,,,,,,,,,,,,,,,,,,,,,,,,,,,,,Correct,,,,579.0,,,,,,,,,8B,,,,,,,,,,,yes,,,2022-01-25T16:35:49.000Z,361511,group_3,401960,Memory3/Open2,1,2022-01-25T15:51:41.000Z,,,,not measured,,True
9,Memory3,4,Memory_3,21,41,,,,,First,3_1B_memory_6.mp3,5,,,,correct_left,,,,,,,,,,,,,,,,,,,,,,,,,,,,,,,,,,,,,Correct,,,,362.0,,,,,,,,,1B,,,,,,,,,,,yes,,,2022-01-25T16:35:49.000Z,361511,group_3,401960,Memory3/Open2,1,2022-01-25T15:51:41.000Z,,,,not measured,,True
9,Memory3,4,Memory_3,22,15,,,,,Second,3_8B_memory_10.mp3,2,,,,incorrect_left,,,,,,,,,,,,,,,,,,,,,,,,,,,,,,,,,,,,,Correct,,,,482.0,,,,,,,,,8B,,,,,,,,,,,yes,,,2022-01-25T16:35:49.000Z,361511,group_3,401960,Memory3/Open2,1,2022-01-25T15:51:41.000Z,,,,not measured,,True
9,Memory3,4,Memory_3,23,33,,,,,Second,3_2B_memory_8.mp3,4,,,,incorrect_left,,,,,,,,,,,,,,,,,,,,,,,,,,,,,,,,,,,,,Correct,,,,644.0,,,,,,,,,2B,,,,,,,,,,,yes,,,2022-01-25T16:35:49.000Z,361511,group_3,401960,Memory3/Open2,1,2022-01-25T15:51:41.000Z,,,,not measured,,True
9,Memory3,4,Memory_3,24,54,,,,,First,3_1B_memory_9.mp3,6,,,,incorrect_left,,,,,,,,,,,,,,,,,,,,,,,,,,,,,,,,,,,,,Incorrect,,,,419.0,,,,,,,,,1B,,,,,,,,,,,yes,,,2022-01-25T16:35:49.000Z,361511,group_3,401960,Memory3/Open2,1,2022-01-25T15:51:41.000Z,,,,not measured,,True
9,Memory3,4,Memory_3,25,26,,,,,First,4_2B_memory_5.mp3,3,,,,correct_left,,,,,,,,,,,,,,,,,,,,,,,,,,,,,,,,,,,,,Correct,,,,450.0,,,,,,,,,2B,,,,,,,,,,,yes,,,2022-01-25T16:35:49.000Z,361511,group_3,401960,Memory3/Open2,1,2022-01-25T15:51:41.000Z,,,,not measured,,True
9,Memory3,4,Memory_3,26,17,,,,,Second,4_8B_memory_6.mp3,2,,,,incorrect_left,,,,,,,,,,,,,,,,,,,,,,,,,,,,,,,,,,,,,Correct,,,,882.0,,,,,,,,,8B,,,,,,,,,,,yes,,,2022-01-25T16:35:49.000Z,361511,group_3,401960,Memory3/Open2,1,2022-01-25T15:51:41.000Z,,,,not measured,,True
9,Memory3,4,Memory_3,27,57,,,,,First,4_1B_memory_6.mp3,6,,,,incorrect_left,,,,,,,,,,,,,,,,,,,,,,,,,,,,,,,,,,,,,Incorrect,,,,681.0,,,,,,,,,1B,,,,,,,,,,,yes,,,2022-01-25T16:35:49.000Z,361511,group_3,401960,Memory3/Open2,1,2022-01-25T15:51:41.000Z,,,,not measured,,True
9,Memory3,4,Memory_3,28,45,,,,,Second,3_1B_memory_10.mp3,5,,,,correct_left,,,,,,,,,,,,,,,,,,,,,,,,,,,,,,,,,,,,,Incorrect,,,,467.0,,,,,,,,,1B,,,,,,,,,,,yes,,,2022-01-25T16:35:49.000Z,361511,group_3,401960,Memory3/Open2,1,2022-01-25T15:51:41.000Z,,,,not measured,,True
9,Memory3,4,Memory_3,29,52,,,,,First,3_1B_memory_7.mp3,6,,,,incorrect_left,,,,,,,,,,,,,,,,,,,,,,,,,,,,,,,,,,,,,Incorrect,,,,504.0,,,,,,,,,1B,,,,,,,,,,,yes,,,2022-01-25T16:35:49.000Z,361511,group_3,401960,Memory3/Open2,1,2022-01-25T15:51:41.000Z,,,,not measured,,True
9,Memory3,4,Memory_3,30,37,,,,,First,4_2B_memory_6.mp3,4,,,,incorrect_left,,,,,,,,,,,,,,,,,,,,,,,,,,,,,,,,,,,,,Incorrect,,,,631.0,,,,,,,,,2B,,,,,,,,,,,yes,,,2022-01-25T16:35:49.000Z,361511,group_3,401960,Memory3/Open2,1,2022-01-25T15:51:41.000Z,,,,not measured,,True
9,Memory3,3,Ready?,1,1,,,,,,,1,,,,,,,,,,,,,,,,,,,,,,,,,,,,,,,,,,,,,,,,,,,,,,,,,,,,,,,,,,,,,,,,,yes,,,2022-01-25T16:35:49.000Z,361511,group_3,401960,Memory3/Open2,1,2022-01-25T15:51:41.000Z,,,,not measured,,True
9,Memory3,2,Practice_Memory,1,1,,,,,First,,1,,,,,,,,,correct_incorrect,,,,,,,,,,,,,,,,,,,,,,,,,,,,,,,,Correct,,,,2094.0,,,,,,,,,,,,,,,,,,,,yes,,,2022-01-25T16:35:49.000Z,361511,group_3,401960,Memory3/Open2,1,2022-01-25T15:51:41.000Z,,,,not measured,,True
9,Memory3,2,Practice_Memory,2,2,,,,,First,,1,,,,,,,,,correct_incorrect,,,,,,,,,,,,,,,,,,,,,,,,,,,,,,,,Correct,,,,495.0,,,,,,,,,,,,,,,,,,,,yes,,,2022-01-25T16:35:49.000Z,361511,group_3,401960,Memory3/Open2,1,2022-01-25T15:51:41.000Z,,,,not measured,,True
9,Memory3,2,Practice_Memory,3,3,,,,,First,,1,,,,,,,,,correct_incorrect,,,,,,,,,,,,,,,,,,,,,,,,,,,,,,,,Correct,,,,627.0,,,,,,,,,,,,,,,,,,,,yes,,,2022-01-25T16:35:49.000Z,361511,group_3,401960,Memory3/Open2,1,2022-01-25T15:51:41.000Z,,,,not measured,,True
9,Memory3,1,Instructions_Memory,1,1,,,,,,,1,,,,,,,,,,,,,,,,,,,,,,,,,,,,,,,,,,,,,,,,,,,,,,,,,,,,,,,,,,,,,,,,,yes,,,2022-01-25T16:35:49.000Z,361511,group_3,401960,Memory3/Open2,1,2022-01-25T15:51:41.000Z,,,,not measured,,True
7,HP_Screen,3,imported_HP Evaluation,1,1,,,,,,,1,,,,,,,,,,,,,,0.0,,,,,,,,,,,,,,,,,,,,,,,,,,,,,,,,,,,,,,,,,,,,,,,,,,,yes,,,2022-01-25T16:35:49.000Z,361511,group_3,401960,Memory3/Open2,1,2022-01-25T15:51:41.000Z,,,,not measured,,True
7,HP_Screen,2,imported_HP Trials,1,3,,,,,,,1,,,,,,,,,,,,,,0.0,,,"""times=;;;;;;;;;;;;;;;;;---values=;;;;;;;;;;;;;;;;;""",hp2.2.flac,,,,,,,,,,,,,,,,,,,,,,,choice 2,,,,,,,,,,,,,,,,,,,hp2.2.flac,,,,,yes,,,2022-01-25T16:35:49.000Z,361511,group_3,401960,Memory3/Open2,1,2022-01-25T15:51:41.000Z,,,,not measured,,True
7,HP_Screen,2,imported_HP Trials,2,6,,,,,,,1,,,,,,,,,,,,,,0.0,,,"""times=;;;;;;;;;;;;;;;;;---values=;;;;;;;;;;;;;;;;;""",hp6.1.flac,,,,,,,,,,,,,,,,,,,,,,,choice 1,,,,,,,,,,,,,,,,,,,hp6.1.flac,,,,,yes,,,2022-01-25T16:35:49.000Z,361511,group_3,401960,Memory3/Open2,1,2022-01-25T15:51:41.000Z,,,,not measured,,True
7,HP_Screen,2,imported_HP Trials,3,4,,,,,,,1,,,,,,,,,,,,,,0.0,,,"""times=;;;;;;;;;;;;;;;;;---values=;;;;;;;;;;;;;;;;;""",hp4.1.flac,,,,,,,,,,,,,,,,,,,,,,,choice 1,,,,,,,,,,,,,,,,,,,hp4.1.flac,,,,,yes,,,2022-01-25T16:35:49.000Z,361511,group_3,401960,Memory3/Open2,1,2022-01-25T15:51:41.000Z,,,,not measured,,True
7,HP_Screen,2,imported_HP Trials,4,1,,,,,,,1,,,,,,,,,,,,,,0.0,,,"""times=;;;;;;;;;;;;;;;;;---values=;;;;;;;;;;;;;;;;;""",hp6.3.flac,,,,,,,,,,,,,,,,,,,,,,,choice 3,,,,,,,,,,,,,,,,,,,hp6.3.flac,,,,,yes,,,2022-01-25T16:35:49.000Z,361511,group_3,401960,Memory3/Open2,1,2022-01-25T15:51:41.000Z,,,,not measured,,True
7,HP_Screen,2,imported_HP Trials,5,2,,,,,,,1,,,,,,,,,,,,,,0.0,,,"""times=;;;;;;;;;;;;;;;;;---values=;;;;;;;;;;;;;;;;;""",hp3.1.flac,,,,,,,,,,,,,,,,,,,,,,,choice 1,,,,,,,,,,,,,,,,,,,hp3.1.flac,,,,,yes,,,2022-01-25T16:35:49.000Z,361511,group_3,401960,Memory3/Open2,1,2022-01-25T15:51:41.000Z,,,,not measured,,True
7,HP_Screen,2,imported_HP Trials,6,5,,,,,,,1,,,,,,,,,,,,,,0.0,,,"""times=;;;;;;;;;;;;;;;;;---values=;;;;;;;;;;;;;;;;;""",hp5.1.flac,,,,,,,,,,,,,,,,,,,,,,,choice 1,,,,,,,,,,,,,,,,,,,hp5.1.flac,,,,,yes,,,2022-01-25T16:35:49.000Z,361511,group_3,401960,Memory3/Open2,1,2022-01-25T15:51:41.000Z,,,,not measured,,True
7,HP_Screen,1,imported_HP Instructions,1,1,,,,,,,1,,,,,,,,,,,,,,,2.0,,,,,,,,,,,,,,,,,,,,,,,,,,,,,,,,,,,,,,,,,,,,,,,,,,yes,,,2022-01-25T16:35:49.000Z,361511,group_3,401960,Memory3/Open2,1,2022-01-25T15:51:41.000Z,,,,not measured,,True
6,AP_Screen,3,imported_AP_eval,1,1,,,,,,,1,,,,,,,,,,,,,,,,,,,,,,,,,,,,,,,0.0,,,,,,,,,,,,,,,,,,,,,,,,,,,,,,,,,,yes,,,2022-01-25T16:35:49.000Z,361511,group_3,401960,Memory3/Open2,1,2022-01-25T15:51:41.000Z,,,,not measured,,True
6,AP_Screen,2,imported_AP_headphone test,1,3,,,,,,,3,,,,,,,,,,,,one,,,,,,,,,,,,,,,1.0,,,,0.0,,,,,,,,,,,,,,,,,,,,,,,,,,,,,,,,S_O_I,,yes,,,2022-01-25T16:35:49.000Z,361511,group_3,401960,Memory3/Open2,1,2022-01-25T15:51:41.000Z,,,,not measured,,True
6,AP_Screen,2,imported_AP_headphone test,2,4,,,,,,,4,,,,,,,,,,,,one,,,,,,,,,,,,,,,1.0,,,,0.0,,,,,,,,,,,,,,,,,,,,,,,,,,,,,,,,S_I_O,,yes,,,2022-01-25T16:35:49.000Z,361511,group_3,401960,Memory3/Open2,1,2022-01-25T15:51:41.000Z,,,,not measured,,True
6,AP_Screen,2,imported_AP_headphone test,3,1,,,,,,,1,,,,,,,,,,,,three,,,,,,,,,,,,,,,1.0,,,,0.0,,,,,,,,,,,,,,,,,,,,,,,,,,,,,,,,I_O_S,,yes,,,2022-01-25T16:35:49.000Z,361511,group_3,401960,Memory3/Open2,1,2022-01-25T15:51:41.000Z,,,,not measured,,True
6,AP_Screen,2,imported_AP_headphone test,4,5,,,,,,,5,,,,,,,,,,,,two,,,,,,,,,,,,,,,1.0,,,,0.0,,,,,,,,,,,,,,,,,,,,,,,,,,,,,,,,O_S_I,,yes,,,2022-01-25T16:35:49.000Z,361511,group_3,401960,Memory3/Open2,1,2022-01-25T15:51:41.000Z,,,,not measured,,True
6,AP_Screen,2,imported_AP_headphone test,5,6,,,,,,,6,,,,,,,,,,,,three,,,,,,,,,,,,,,,1.0,,,,0.0,,,,,,,,,,,,,,,,,,,,,,,,,,,,,,,,O_I_S,,yes,,,2022-01-25T16:35:49.000Z,361511,group_3,401960,Memory3/Open2,1,2022-01-25T15:51:41.000Z,,,,not measured,,True
6,AP_Screen,2,imported_AP_headphone test,6,2,,,,,,,2,,,,,,,,,,,,two,,,,,,,,,,,,,,,1.0,,,,0.0,,,,,,,,,,,,,,,,,,,,,,,,,,,,,,,,I_S_O,,yes,,,2022-01-25T16:35:49.000Z,361511,group_3,401960,Memory3/Open2,1,2022-01-25T15:51:41.000Z,,,,not measured,,True
6,AP_Screen,1,imported_AP_instruction,1,1,,,,,,,1,,,,,,,,,,,,,,,,,,,,,,,,,,,,,,,,,,,,,,,,,,,,,,,,,,,,,,,,,,,,,,,,,yes,,,2022-01-25T16:35:49.000Z,361511,group_3,401960,Memory3/Open2,1,2022-01-25T15:51:41.000Z,,,,not measured,,True
4,GenInstructMemOpen,1,InstructionsMemOpen,1,1,,,,,,,1,,,,,,,,,,,,,,,,,,,,,,,,,,,,,,,,,,,,,,,,,,,,,,,,,,,,,,,,,,,,,,,,,yes,,,2022-01-25T16:35:49.000Z,361511,group_3,401960,Memory3/Open2,1,2022-01-25T15:51:41.000Z,,,,not measured,,True
2,Consent,1,Consent,1,1,,,,,,,1,,,,,,,,,,,,,,,,,,,,,,,,,,,,,,,,,,,,,,,,,,,,,,,,,,,,,,,,,,,,,,,,,yes,,,2022-01-25T16:35:49.000Z,361511,group_3,401960,Memory3/Open2,1,2022-01-25T15:51:41.000Z,,,,not measured,,True
