Block_Nr,Block_Name,Task_Nr,Task_Name,Trial_Nr,Trial_Id,ab_pitch,age_range,answer,best_instru,choice,clip,Condition_Id,conditions,consent,correct_incorrect_m_2,correct_incorrect_m_3,correct_incorrect_mem_1,correct_incorrect_p_1,correct_incorrect_p_2,correct_incorrect_p_3,correct_incorrect_practice_m,correct_incorrect_practice_p,correctCount,decision,earworm,errorCount,exampleCount,familiarity,fileArray,filePick,Frequenc,genre,genre_3,genre_4,hour,imagery,imagery_2,Instr,isCorrect,listen_time,music_theory,name_instru,nrErrors,num_instru,participant_choice,participant_choice_2,participant_choice2,participant_spacePress,participant_spacePress2,played_notplayed,practice_catseg_scramble,relative_pitch,response,response_seg,response_seg2,response_Time2,responseTime,retestCount,scramble_cat_1,scramble_cat_3,scramble_cat_4,scramble_catseg_4,scramble_level,scramble_m_1,scramble_m_2,scramble_m_3,scramble_open_3,scramble_p_1,scramble_p_2,scramble_p_3,set1response,soundName,strategy,time_atClipStart1,toneSequence,always_fullscreen,completed,crowdsourcing_code,crowdsourcing_subj_id,end_time,exp_subject_id,group_name,rec_session_id,session_name,session_nr,start_time,subj_counter_global,subj_counter_per_group,subject_code,time_delay_offset,time_measure_std,unlocked
13,Post-Survey,1,Post-Survey,1,1,,,,,,,1,,,,,,,,,,,,,,,,1.0,,,,,,,,,,,,,,,,,,,,,,option_1,,,,,,,,,,,,,,,,,,,,,,,I just used my feet to count the seconcs. Sometimes I clapped my hands.,,,,yes,,,2022-01-26T14:55:02.000Z,362340,group_4,403007,Memory1/Cat.4,1,2022-01-26T14:08:06.000Z,,,,not measured,,True
11,CategorizationSeg_4,4,CategorizationSeg_4,1,7,,,,,,,2,,,,,,,,,,,,,,,,,,,,,,,,,,,,,,,,,,,,,,,,,,,,,,,,,,8B,,,,,,,,,,,,,,,yes,,,2022-01-26T14:55:02.000Z,362340,group_4,403007,Memory1/Cat.4,1,2022-01-26T14:08:06.000Z,,,,not measured,,True
11,CategorizationSeg_4,4,CategorizationSeg_4,2,8,,,,,,,2,,,,,,,,,,,,,,,,,,,,,,,,,,,,,,,,,Every 16 seconds (every 8 measures),Every 16 seconds (every 8 measures),,,,,,,,Correct,Correct,1044.0,1671.0,,,,,8B,,,,,,,,,,,,,,,yes,,,2022-01-26T14:55:02.000Z,362340,group_4,403007,Memory1/Cat.4,1,2022-01-26T14:08:06.000Z,,,,not measured,,True
11,CategorizationSeg_4,4,CategorizationSeg_4,3,12,,,,,,,3,,,,,,,,,,,,,,,,,,,,,,,,,,,,,,,,,Every 4 seconds (every 2 measures),Every 4 seconds (every 2 measures),,,,,,,,Correct,Correct,1124.0,2836.0,,,,,2B,,,,,,,,,,,,,,,yes,,,2022-01-26T14:55:02.000Z,362340,group_4,403007,Memory1/Cat.4,1,2022-01-26T14:08:06.000Z,,,,not measured,,True
11,CategorizationSeg_4,4,CategorizationSeg_4,4,2,,,,,,,1,,,,,,,,,,,,,,,,,,,,,,,,,,,,,,,,,Every 4 seconds (every 2 measures),Every 16 seconds (every 8 measures),,,,,,,,Incorrect,Incorrect,2443.0,2442.0,,,,,intact,,,,,,,,,,,,,,,yes,,,2022-01-26T14:55:02.000Z,362340,group_4,403007,Memory1/Cat.4,1,2022-01-26T14:08:06.000Z,,,,not measured,,True
11,CategorizationSeg_4,4,CategorizationSeg_4,5,4,,,,,,,1,,,,,,,,,,,,,,,,,,,,,,,,,,,,,,,,,Every 16 seconds (every 8 measures),Every 16 seconds (every 8 measures),,,,,,,,Incorrect,Incorrect,1354.0,2212.0,,,,,intact,,,,,,,,,,,,,,,yes,,,2022-01-26T14:55:02.000Z,362340,group_4,403007,Memory1/Cat.4,1,2022-01-26T14:08:06.000Z,,,,not measured,,True
11,CategorizationSeg_4,4,CategorizationSeg_4,6,9,,,,,,,3,,,,,,,,,,,,,,,,,,,,,,,,,,,,,,,,,,Every 4 seconds (every 2 measures),,,,,,,,,Correct,1212.0,,,,,,2B,,,,,,,,,,,,,,,yes,,,2022-01-26T14:55:02.000Z,362340,group_4,403007,Memory1/Cat.4,1,2022-01-26T14:08:06.000Z,,,,not measured,,True
11,CategorizationSeg_4,4,CategorizationSeg_4,7,15,,,,,,,4,,,,,,,,,,,,,,,,,,,,,,,,,,,,,,,,,Every 4 seconds (every 2 measures),Every 4 seconds (every 2 measures),,,,,,,,Incorrect,Incorrect,1206.0,1103.0,,,,,1B,,,,,,,,,,,,,,,yes,,,2022-01-26T14:55:02.000Z,362340,group_4,403007,Memory1/Cat.4,1,2022-01-26T14:08:06.000Z,,,,not measured,,True
11,CategorizationSeg_4,4,CategorizationSeg_4,8,16,,,,,,,4,,,,,,,,,,,,,,,,,,,,,,,,,,,,,,,,,Every 16 seconds (every 8 measures),Every 4 seconds (every 2 measures),,,,,,,,Incorrect,Incorrect,1602.0,2645.0,,,,,1B,,,,,,,,,,,,,,,yes,,,2022-01-26T14:55:02.000Z,362340,group_4,403007,Memory1/Cat.4,1,2022-01-26T14:08:06.000Z,,,,not measured,,True
11,CategorizationSeg_4,3,Ready?,1,1,,,,,,,1,,,,,,,,,,,,,,,,,,,,,,,,,,,,,,,,,,,,,,,,,,,,,,,,,,,,,,,,,,,,,,,,,yes,,,2022-01-26T14:55:02.000Z,362340,group_4,403007,Memory1/Cat.4,1,2022-01-26T14:08:06.000Z,,,,not measured,,True
11,CategorizationSeg_4,2,Practice_Categorization,1,3,,,,,,,3,,,,,,,,,,,,,,,,,,,,,,,,,,,,,,,,,Every 16 seconds (every 8 measures),Every 4 seconds (every 2 measures),,,,,2B,,,Incorrect,Incorrect,4855.0,6911.0,,,,,,,,,,,,,,,,,,,,yes,,,2022-01-26T14:55:02.000Z,362340,group_4,403007,Memory1/Cat.4,1,2022-01-26T14:08:06.000Z,,,,not measured,,True
11,CategorizationSeg_4,1,Instructions for Categorization Seg.,1,1,,,,,,,1,,,,,,,,,,,,,,,,,,,,,,,,,,,,,,,,,,,,,,,,,,,,,,,,,,,,,,,,,,,,,,,,,yes,,,2022-01-26T14:55:02.000Z,362340,group_4,403007,Memory1/Cat.4,1,2022-01-26T14:08:06.000Z,,,,not measured,,True
9,Memory 1,4,Memory_1,1,53,,,,,Second,2_1B_memory_3.mp3,6,,,,,incorrect_left,,,,,,,,,,,,,,,,,,,,,,,,,,,,,,,,,,,,Correct,,,,1560.0,,,,,,,1B,,,,,,,,,,,,,yes,,,2022-01-26T14:55:02.000Z,362340,group_4,403007,Memory1/Cat.4,1,2022-01-26T14:08:06.000Z,,,,not measured,,True
9,Memory 1,4,Memory_1,2,47,,,,,Second,3_1B_memory_2.mp3,5,,,,,correct_left,,,,,,,,,,,,,,,,,,,,,,,,,,,,,,,,,,,,Incorrect,,,,788.0,,,,,,,1B,,,,,,,,,,,,,yes,,,2022-01-26T14:55:02.000Z,362340,group_4,403007,Memory1/Cat.4,1,2022-01-26T14:08:06.000Z,,,,not measured,,True
9,Memory 1,4,Memory_1,3,54,,,,,First,2_1B_memory_4.mp3,6,,,,,incorrect_left,,,,,,,,,,,,,,,,,,,,,,,,,,,,,,,,,,,,Incorrect,,,,874.0,,,,,,,1B,,,,,,,,,,,,,yes,,,2022-01-26T14:55:02.000Z,362340,group_4,403007,Memory1/Cat.4,1,2022-01-26T14:08:06.000Z,,,,not measured,,True
9,Memory 1,4,Memory_1,4,13,,,,,Second,2_8B_memory_3.mp3,2,,,,,incorrect_left,,,,,,,,,,,,,,,,,,,,,,,,,,,,,,,,,,,,Correct,,,,716.0,,,,,,,8B,,,,,,,,,,,,,yes,,,2022-01-26T14:55:02.000Z,362340,group_4,403007,Memory1/Cat.4,1,2022-01-26T14:08:06.000Z,,,,not measured,,True
9,Memory 1,4,Memory_1,5,42,,,,,First,2_1B_memory_2.mp3,5,,,,,correct_left,,,,,,,,,,,,,,,,,,,,,,,,,,,,,,,,,,,,Correct,,,,532.0,,,,,,,1B,,,,,,,,,,,,,yes,,,2022-01-26T14:55:02.000Z,362340,group_4,403007,Memory1/Cat.4,1,2022-01-26T14:08:06.000Z,,,,not measured,,True
9,Memory 1,4,Memory_1,6,25,,,,,First,2_2B_memory_5.mp3,3,,,,,correct_left,,,,,,,,,,,,,,,,,,,,,,,,,,,,,,,,,,,,Correct,,,,1184.0,,,,,,,2B,,,,,,,,,,,,,yes,,,2022-01-26T14:55:02.000Z,362340,group_4,403007,Memory1/Cat.4,1,2022-01-26T14:08:06.000Z,,,,not measured,,True
9,Memory 1,4,Memory_1,7,18,,,,,Second,3_8B_memory_3.mp3,2,,,,,incorrect_left,,,,,,,,,,,,,,,,,,,,,,,,,,,,,,,,,,,,Correct,,,,900.0,,,,,,,8B,,,,,,,,,,,,,yes,,,2022-01-26T14:55:02.000Z,362340,group_4,403007,Memory1/Cat.4,1,2022-01-26T14:08:06.000Z,,,,not measured,,True
9,Memory 1,4,Memory_1,8,41,,,,,First,2_1B_memory_1.mp3,5,,,,,correct_left,,,,,,,,,,,,,,,,,,,,,,,,,,,,,,,,,,,,Correct,,,,1114.0,,,,,,,1B,,,,,,,,,,,,,yes,,,2022-01-26T14:55:02.000Z,362340,group_4,403007,Memory1/Cat.4,1,2022-01-26T14:08:06.000Z,,,,not measured,,True
9,Memory 1,4,Memory_1,9,22,,,,,Second,2_2B_memory_2.mp3,3,,,,,correct_left,,,,,,,,,,,,,,,,,,,,,,,,,,,,,,,,,,,,Incorrect,,,,820.0,,,,,,,2B,,,,,,,,,,,,,yes,,,2022-01-26T14:55:02.000Z,362340,group_4,403007,Memory1/Cat.4,1,2022-01-26T14:08:06.000Z,,,,not measured,,True
9,Memory 1,4,Memory_1,10,10,,,,,Second,3_8B_memory_5.mp3,1,,,,,correct_left,,,,,,,,,,,,,,,,,,,,,,,,,,,,,,,,,,,,Incorrect,,,,2026.0,,,,,,,8B,,,,,,,,,,,,,yes,,,2022-01-26T14:55:02.000Z,362340,group_4,403007,Memory1/Cat.4,1,2022-01-26T14:08:06.000Z,,,,not measured,,True
9,Memory 1,4,Memory_1,11,38,,,,,Second,3_2B_memory_3.mp3,4,,,,,incorrect_left,,,,,,,,,,,,,,,,,,,,,,,,,,,,,,,,,,,,Correct,,,,873.0,,,,,,,2B,,,,,,,,,,,,,yes,,,2022-01-26T14:55:02.000Z,362340,group_4,403007,Memory1/Cat.4,1,2022-01-26T14:08:06.000Z,,,,not measured,,True
9,Memory 1,4,Memory_1,12,17,,,,,Second,3_8B_memory_2.mp3,2,,,,,incorrect_left,,,,,,,,,,,,,,,,,,,,,,,,,,,,,,,,,,,,Correct,,,,2970.0,,,,,,,8B,,,,,,,,,,,,,yes,,,2022-01-26T14:55:02.000Z,362340,group_4,403007,Memory1/Cat.4,1,2022-01-26T14:08:06.000Z,,,,not measured,,True
9,Memory 1,4,Memory_1,13,2,,,,,First,2_8B_memory_2.mp3,1,,,,,correct_left,,,,,,,,,,,,,,,,,,,,,,,,,,,,,,,,,,,,Correct,,,,953.0,,,,,,,8B,,,,,,,,,,,,,yes,,,2022-01-26T14:55:02.000Z,362340,group_4,403007,Memory1/Cat.4,1,2022-01-26T14:08:06.000Z,,,,not measured,,True
9,Memory 1,4,Memory_1,14,60,,,,,First,3_1B_memory_5.mp3,6,,,,,incorrect_left,,,,,,,,,,,,,,,,,,,,,,,,,,,,,,,,,,,,Incorrect,,,,2195.0,,,,,,,1B,,,,,,,,,,,,,yes,,,2022-01-26T14:55:02.000Z,362340,group_4,403007,Memory1/Cat.4,1,2022-01-26T14:08:06.000Z,,,,not measured,,True
9,Memory 1,4,Memory_1,15,9,,,,,Second,3_8B_memory_4.mp3,1,,,,,correct_left,,,,,,,,,,,,,,,,,,,,,,,,,,,,,,,,,,,,Incorrect,,,,874.0,,,,,,,8B,,,,,,,,,,,,,yes,,,2022-01-26T14:55:02.000Z,362340,group_4,403007,Memory1/Cat.4,1,2022-01-26T14:08:06.000Z,,,,not measured,,True
9,Memory 1,4,Memory_1,16,21,,,,,Second,2_2B_memory_1.mp3,3,,,,,correct_left,,,,,,,,,,,,,,,,,,,,,,,,,,,,,,,,,,,,Incorrect,,,,1381.0,,,,,,,2B,,,,,,,,,,,,,yes,,,2022-01-26T14:55:02.000Z,362340,group_4,403007,Memory1/Cat.4,1,2022-01-26T14:08:06.000Z,,,,not measured,,True
9,Memory 1,4,Memory_1,17,59,,,,,Second,3_1B_memory_4.mp3,6,,,,,incorrect_left,,,,,,,,,,,,,,,,,,,,,,,,,,,,,,,,,,,,Correct,,,,837.0,,,,,,,1B,,,,,,,,,,,,,yes,,,2022-01-26T14:55:02.000Z,362340,group_4,403007,Memory1/Cat.4,1,2022-01-26T14:08:06.000Z,,,,not measured,,True
9,Memory 1,4,Memory_1,18,24,,,,,First,2_2B_memory_4.mp3,3,,,,,correct_left,,,,,,,,,,,,,,,,,,,,,,,,,,,,,,,,,,,,Correct,,,,1183.0,,,,,,,2B,,,,,,,,,,,,,yes,,,2022-01-26T14:55:02.000Z,362340,group_4,403007,Memory1/Cat.4,1,2022-01-26T14:08:06.000Z,,,,not measured,,True
9,Memory 1,4,Memory_1,19,37,,,,,First,3_2B_memory_2.mp3,4,,,,,incorrect_left,,,,,,,,,,,,,,,,,,,,,,,,,,,,,,,,,,,,Incorrect,,,,1276.0,,,,,,,2B,,,,,,,,,,,,,yes,,,2022-01-26T14:55:02.000Z,362340,group_4,403007,Memory1/Cat.4,1,2022-01-26T14:08:06.000Z,,,,not measured,,True
9,Memory 1,4,Memory_1,20,26,,,,,First,3_2B_memory_1.mp3,3,,,,,correct_left,,,,,,,,,,,,,,,,,,,,,,,,,,,,,,,,,,,,Correct,,,,900.0,,,,,,,2B,,,,,,,,,,,,,yes,,,2022-01-26T14:55:02.000Z,362340,group_4,403007,Memory1/Cat.4,1,2022-01-26T14:08:06.000Z,,,,not measured,,True
9,Memory 1,4,Memory_1,21,40,,,,,Second,3_2B_memory_5.mp3,4,,,,,incorrect_left,,,,,,,,,,,,,,,,,,,,,,,,,,,,,,,,,,,,Correct,,,,773.0,,,,,,,2B,,,,,,,,,,,,,yes,,,2022-01-26T14:55:02.000Z,362340,group_4,403007,Memory1/Cat.4,1,2022-01-26T14:08:06.000Z,,,,not measured,,True
9,Memory 1,4,Memory_1,22,58,,,,,Second,3_1B_memory_3.mp3,6,,,,,incorrect_left,,,,,,,,,,,,,,,,,,,,,,,,,,,,,,,,,,,,Correct,,,,1237.0,,,,,,,1B,,,,,,,,,,,,,yes,,,2022-01-26T14:55:02.000Z,362340,group_4,403007,Memory1/Cat.4,1,2022-01-26T14:08:06.000Z,,,,not measured,,True
9,Memory 1,4,Memory_1,23,39,,,,,Second,3_2B_memory_4.mp3,4,,,,,incorrect_left,,,,,,,,,,,,,,,,,,,,,,,,,,,,,,,,,,,,Correct,,,,726.0,,,,,,,2B,,,,,,,,,,,,,yes,,,2022-01-26T14:55:02.000Z,362340,group_4,403007,Memory1/Cat.4,1,2022-01-26T14:08:06.000Z,,,,not measured,,True
9,Memory 1,4,Memory_1,24,1,,,,,First,2_8B_memory_1.mp3,1,,,,,correct_left,,,,,,,,,,,,,,,,,,,,,,,,,,,,,,,,,,,,Correct,,,,1084.0,,,,,,,8B,,,,,,,,,,,,,yes,,,2022-01-26T14:55:02.000Z,362340,group_4,403007,Memory1/Cat.4,1,2022-01-26T14:08:06.000Z,,,,not measured,,True
9,Memory 1,4,Memory_1,25,55,,,,,First,2_1B_memory_5.mp3,6,,,,,incorrect_left,,,,,,,,,,,,,,,,,,,,,,,,,,,,,,,,,,,,Incorrect,,,,1518.0,,,,,,,1B,,,,,,,,,,,,,yes,,,2022-01-26T14:55:02.000Z,362340,group_4,403007,Memory1/Cat.4,1,2022-01-26T14:08:06.000Z,,,,not measured,,True
9,Memory 1,4,Memory_1,26,23,,,,,Second,2_2B_memory_3.mp3,3,,,,,correct_left,,,,,,,,,,,,,,,,,,,,,,,,,,,,,,,,,,,,Incorrect,,,,1527.0,,,,,,,2B,,,,,,,,,,,,,yes,,,2022-01-26T14:55:02.000Z,362340,group_4,403007,Memory1/Cat.4,1,2022-01-26T14:08:06.000Z,,,,not measured,,True
9,Memory 1,4,Memory_1,27,5,,,,,First,2_8B_memory_5.mp3,1,,,,,correct_left,,,,,,,,,,,,,,,,,,,,,,,,,,,,,,,,,,,,Correct,,,,853.0,,,,,,,8B,,,,,,,,,,,,,yes,,,2022-01-26T14:55:02.000Z,362340,group_4,403007,Memory1/Cat.4,1,2022-01-26T14:08:06.000Z,,,,not measured,,True
9,Memory 1,4,Memory_1,28,56,,,,,First,3_1B_memory_1.mp3,6,,,,,incorrect_left,,,,,,,,,,,,,,,,,,,,,,,,,,,,,,,,,,,,Incorrect,,,,917.0,,,,,,,1B,,,,,,,,,,,,,yes,,,2022-01-26T14:55:02.000Z,362340,group_4,403007,Memory1/Cat.4,1,2022-01-26T14:08:06.000Z,,,,not measured,,True
9,Memory 1,4,Memory_1,29,4,,,,,First,2_8B_memory_4.mp3,1,,,,,correct_left,,,,,,,,,,,,,,,,,,,,,,,,,,,,,,,,,,,,Correct,,,,1256.0,,,,,,,8B,,,,,,,,,,,,,yes,,,2022-01-26T14:55:02.000Z,362340,group_4,403007,Memory1/Cat.4,1,2022-01-26T14:08:06.000Z,,,,not measured,,True
9,Memory 1,4,Memory_1,30,16,,,,,First,3_8B_memory_1.mp3,2,,,,,incorrect_left,,,,,,,,,,,,,,,,,,,,,,,,,,,,,,,,,,,,Incorrect,,,,882.0,,,,,,,8B,,,,,,,,,,,,,yes,,,2022-01-26T14:55:02.000Z,362340,group_4,403007,Memory1/Cat.4,1,2022-01-26T14:08:06.000Z,,,,not measured,,True
9,Memory 1,3,Ready?,1,1,,,,,,,1,,,,,,,,,,,,,,,,,,,,,,,,,,,,,,,,,,,,,,,,,,,,,,,,,,,,,,,,,,,,,,,,,yes,,,2022-01-26T14:55:02.000Z,362340,group_4,403007,Memory1/Cat.4,1,2022-01-26T14:08:06.000Z,,,,not measured,,True
9,Memory 1,2,Practice_Memory,1,5,,,,,First,,2,,,,,,,,,incorrect_correc,,,,,,,,,,,,,,,,,,,,,,,,,,,,,,,,Incorrect,,,,1359.0,,,,,,,,,,,,,,,,,,,,yes,,,2022-01-26T14:55:02.000Z,362340,group_4,403007,Memory1/Cat.4,1,2022-01-26T14:08:06.000Z,,,,not measured,,True
9,Memory 1,2,Practice_Memory,2,4,,,,,Second,,2,,,,,,,,,incorrect_correc,,,,,,,,,,,,,,,,,,,,,,,,,,,,,,,,Correct,,,,953.0,,,,,,,,,,,,,,,,,,,,yes,,,2022-01-26T14:55:02.000Z,362340,group_4,403007,Memory1/Cat.4,1,2022-01-26T14:08:06.000Z,,,,not measured,,True
9,Memory 1,2,Practice_Memory,3,6,,,,,Second,,2,,,,,,,,,incorrect_correc,,,,,,,,,,,,,,,,,,,,,,,,,,,,,,,,Correct,,,,657.0,,,,,,,,,,,,,,,,,,,,yes,,,2022-01-26T14:55:02.000Z,362340,group_4,403007,Memory1/Cat.4,1,2022-01-26T14:08:06.000Z,,,,not measured,,True
9,Memory 1,1,Instructions_Memory,1,1,,,,,,,1,,,,,,,,,,,,,,,,,,,,,,,,,,,,,,,,,,,,,,,,,,,,,,,,,,,,,,,,,,,,,,,,,yes,,,2022-01-26T14:55:02.000Z,362340,group_4,403007,Memory1/Cat.4,1,2022-01-26T14:08:06.000Z,,,,not measured,,True
7,AP_Screen,3,imported_AP_eval,1,1,,,,,,,1,,,,,,,,,,,,,,,,,,,,,,,,,,,,,,,0.0,,,,,,,,,,,,,,,,,,,,,,,,,,,,,,,,,,yes,,,2022-01-26T14:55:02.000Z,362340,group_4,403007,Memory1/Cat.4,1,2022-01-26T14:08:06.000Z,,,,not measured,,True
7,AP_Screen,2,imported_AP_headphone test,1,3,,,,,,,3,,,,,,,,,,,,one,,,,,,,,,,,,,,,1.0,,,,0.0,,,,,,,,,,,,,,,,,,,,,,,,,,,,,,,,S_O_I,,yes,,,2022-01-26T14:55:02.000Z,362340,group_4,403007,Memory1/Cat.4,1,2022-01-26T14:08:06.000Z,,,,not measured,,True
7,AP_Screen,2,imported_AP_headphone test,2,1,,,,,,,1,,,,,,,,,,,,three,,,,,,,,,,,,,,,1.0,,,,0.0,,,,,,,,,,,,,,,,,,,,,,,,,,,,,,,,I_O_S,,yes,,,2022-01-26T14:55:02.000Z,362340,group_4,403007,Memory1/Cat.4,1,2022-01-26T14:08:06.000Z,,,,not measured,,True
7,AP_Screen,2,imported_AP_headphone test,3,4,,,,,,,4,,,,,,,,,,,,one,,,,,,,,,,,,,,,1.0,,,,0.0,,,,,,,,,,,,,,,,,,,,,,,,,,,,,,,,S_I_O,,yes,,,2022-01-26T14:55:02.000Z,362340,group_4,403007,Memory1/Cat.4,1,2022-01-26T14:08:06.000Z,,,,not measured,,True
7,AP_Screen,2,imported_AP_headphone test,4,2,,,,,,,2,,,,,,,,,,,,two,,,,,,,,,,,,,,,1.0,,,,0.0,,,,,,,,,,,,,,,,,,,,,,,,,,,,,,,,I_S_O,,yes,,,2022-01-26T14:55:02.000Z,362340,group_4,403007,Memory1/Cat.4,1,2022-01-26T14:08:06.000Z,,,,not measured,,True
7,AP_Screen,2,imported_AP_headphone test,5,5,,,,,,,5,,,,,,,,,,,,two,,,,,,,,,,,,,,,1.0,,,,0.0,,,,,,,,,,,,,,,,,,,,,,,,,,,,,,,,O_S_I,,yes,,,2022-01-26T14:55:02.000Z,362340,group_4,403007,Memory1/Cat.4,1,2022-01-26T14:08:06.000Z,,,,not measured,,True
7,AP_Screen,2,imported_AP_headphone test,6,6,,,,,,,6,,,,,,,,,,,,three,,,,,,,,,,,,,,,1.0,,,,0.0,,,,,,,,,,,,,,,,,,,,,,,,,,,,,,,,O_I_S,,yes,,,2022-01-26T14:55:02.000Z,362340,group_4,403007,Memory1/Cat.4,1,2022-01-26T14:08:06.000Z,,,,not measured,,True
7,AP_Screen,1,imported_AP_instruction,1,1,,,,,,,1,,,,,,,,,,,,,,,,,,,,,,,,,,,,,,,,,,,,,,,,,,,,,,,,,,,,,,,,,,,,,,,,,yes,,,2022-01-26T14:55:02.000Z,362340,group_4,403007,Memory1/Cat.4,1,2022-01-26T14:08:06.000Z,,,,not measured,,True
6,HP_Screen,3,imported_HP Evaluation,1,1,,,,,,,1,,,,,,,,,,,,,,0.0,,,,,,,,,,,,,,,,,,,,,,,,,,,,,,,,,,,,,,,,,,,,,,,,,,,yes,,,2022-01-26T14:55:02.000Z,362340,group_4,403007,Memory1/Cat.4,1,2022-01-26T14:08:06.000Z,,,,not measured,,True
6,HP_Screen,2,imported_HP Trials,1,1,,,,,,,1,,,,,,,,,,,,,,0.0,,,"""times=;;;;;;;;;;;;;;;;;---values=;;;;;;;;;;;;;;;;;""",hp1.3.flac,,,,,,,,,,,,,,,,,,,,,,,choice 3,,,,,,,,,,,,,,,,,,,hp1.3.flac,,,,,yes,,,2022-01-26T14:55:02.000Z,362340,group_4,403007,Memory1/Cat.4,1,2022-01-26T14:08:06.000Z,,,,not measured,,True
6,HP_Screen,2,imported_HP Trials,2,3,,,,,,,1,,,,,,,,,,,,,,0.0,,,"""times=;;;;;;;;;;;;;;;;;---values=;;;;;;;;;;;;;;;;;""",hp3.2.flac,,,,,,,,,,,,,,,,,,,,,,,choice 2,,,,,,,,,,,,,,,,,,,hp3.2.flac,,,,,yes,,,2022-01-26T14:55:02.000Z,362340,group_4,403007,Memory1/Cat.4,1,2022-01-26T14:08:06.000Z,,,,not measured,,True
6,HP_Screen,2,imported_HP Trials,3,5,,,,,,,1,,,,,,,,,,,,,,0.0,,,"""times=;;;;;;;;;;;;;;;;;---values=;;;;;;;;;;;;;;;;;""",hp4.2.flac,,,,,,,,,,,,,,,,,,,,,,,choice 2,,,,,,,,,,,,,,,,,,,hp4.2.flac,,,,,yes,,,2022-01-26T14:55:02.000Z,362340,group_4,403007,Memory1/Cat.4,1,2022-01-26T14:08:06.000Z,,,,not measured,,True
6,HP_Screen,2,imported_HP Trials,4,2,,,,,,,1,,,,,,,,,,,,,,0.0,,,"""times=;;;;;;;;;;;;;;;;;---values=;;;;;;;;;;;;;;;;;""",hp1.1.flac,,,,,,,,,,,,,,,,,,,,,,,choice 1,,,,,,,,,,,,,,,,,,,hp1.1.flac,,,,,yes,,,2022-01-26T14:55:02.000Z,362340,group_4,403007,Memory1/Cat.4,1,2022-01-26T14:08:06.000Z,,,,not measured,,True
6,HP_Screen,2,imported_HP Trials,5,6,,,,,,,1,,,,,,,,,,,,,,0.0,,,"""times=;;;;;;;;;;;;;;;;;---values=;;;;;;;;;;;;;;;;;""",hp2.2.flac,,,,,,,,,,,,,,,,,,,,,,,choice 2,,,,,,,,,,,,,,,,,,,hp2.2.flac,,,,,yes,,,2022-01-26T14:55:02.000Z,362340,group_4,403007,Memory1/Cat.4,1,2022-01-26T14:08:06.000Z,,,,not measured,,True
6,HP_Screen,2,imported_HP Trials,6,4,,,,,,,1,,,,,,,,,,,,,,0.0,,,"""times=;;;;;;;;;;;;;;;;;---values=;;;;;;;;;;;;;;;;;""",hp2.3.flac,,,,,,,,,,,,,,,,,,,,,,,choice 3,,,,,,,,,,,,,,,,,,,hp2.3.flac,,,,,yes,,,2022-01-26T14:55:02.000Z,362340,group_4,403007,Memory1/Cat.4,1,2022-01-26T14:08:06.000Z,,,,not measured,,True
6,HP_Screen,1,imported_HP Instructions,1,1,,,,,,,1,,,,,,,,,,,,,,,1.0,,,,,,,,,,,,,,,,,,,,,,,,,,,,,,,,,,,,,,,,,,,,,,,,,,yes,,,2022-01-26T14:55:02.000Z,362340,group_4,403007,Memory1/Cat.4,1,2022-01-26T14:08:06.000Z,,,,not measured,,True
4,GenInstructMemCat,1,InstructionsMemCat,1,1,,,,,,,1,,,,,,,,,,,,,,,,,,,,,,,,,,,,,,,,,,,,,,,,,,,,,,,,,,,,,,,,,,,,,,,,,yes,,,2022-01-26T14:55:02.000Z,362340,group_4,403007,Memory1/Cat.4,1,2022-01-26T14:08:06.000Z,,,,not measured,,True
2,Consent,1,Consent,1,1,,,,,,,1,,,,,,,,,,,,,,,,,,,,,,,,,,,,,,,,,,,,,,,,,,,,,,,,,,,,,,,,,,,,,,,,,yes,,,2022-01-26T14:55:02.000Z,362340,group_4,403007,Memory1/Cat.4,1,2022-01-26T14:08:06.000Z,,,,not measured,,True
