Block_Nr,Block_Name,Task_Nr,Task_Name,Trial_Nr,Trial_Id,ab_pitch,age_range,answer,best_instru,choice,clip,Condition_Id,conditions,consent,correct_incorrect_m_2,correct_incorrect_m_3,correct_incorrect_mem_1,correct_incorrect_p_1,correct_incorrect_p_2,correct_incorrect_p_3,correct_incorrect_practice_m,correct_incorrect_practice_p,correctCount,decision,earworm,errorCount,exampleCount,familiarity,fileArray,filePick,Frequenc,genre,genre_3,genre_4,hour,imagery,imagery_2,Instr,isCorrect,listen_time,music_theory,name_instru,nrErrors,num_instru,participant_choice,participant_choice_2,participant_choice2,participant_spacePress,participant_spacePress2,played_notplayed,practice_catseg_scramble,relative_pitch,response,response_seg,response_seg2,response_Time2,responseTime,retestCount,scramble_cat_1,scramble_cat_3,scramble_cat_4,scramble_catseg_4,scramble_level,scramble_m_1,scramble_m_2,scramble_m_3,scramble_open_3,scramble_p_1,scramble_p_2,scramble_p_3,set1response,soundName,strategy,time_atClipStart1,toneSequence,always_fullscreen,completed,crowdsourcing_code,crowdsourcing_subj_id,end_time,exp_subject_id,group_name,rec_session_id,session_name,session_nr,start_time,subj_counter_global,subj_counter_per_group,subject_code,time_delay_offset,time_measure_std,unlocked
13,Post-Survey,1,Post-Survey,1,1,I don't know,18-20,,guitar,,,1,,,,,,,,,,,,,5.0,,,3.0,,,2-3 Days/Week,punk rock,country,emo,3-4 hours,,3.0,2 years,,30-60 min,1 year,"guitar,piano",,2.0,,,,,,option_1,,Yes,,,,,,,,,,,,,,,,,,,,,I used my foot to tap and keep count while trying to see when the change is happening,,,,yes,,,2022-01-26T15:35:55.000Z,362390,group_4,403058,Memory1/Cat.4,1,2022-01-26T14:40:17.000Z,,,,not measured,,True
11,CategorizationSeg_4,4,CategorizationSeg_4,1,7,,,,,,,2,,,,,,,,,,,,,,,,,,,,,,,,,,,,,,,,,Every 16 seconds (every 8 measures),Every 4 seconds (every 2 measures),,,,,,,,Correct,Incorrect,2272.0,3062.0,,,,,8B,,,,,,,,,,,,,,,yes,,,2022-01-26T15:35:55.000Z,362390,group_4,403058,Memory1/Cat.4,1,2022-01-26T14:40:17.000Z,,,,not measured,,True
11,CategorizationSeg_4,4,CategorizationSeg_4,2,15,,,,,,,4,,,,,,,,,,,,,,,,,,,,,,,,,,,,,,,,,,,,,,,,,,,,,,,,,,1B,,,,,,,,,,,,,,,yes,,,2022-01-26T15:35:55.000Z,362390,group_4,403058,Memory1/Cat.4,1,2022-01-26T14:40:17.000Z,,,,not measured,,True
11,CategorizationSeg_4,4,CategorizationSeg_4,3,9,,,,,,,3,,,,,,,,,,,,,,,,,,,,,,,,,,,,,,,,,Every 4 seconds (every 2 measures),Every 2 seconds (every 1 measure),,,,,,,,Correct,Incorrect,1990.0,1099.0,,,,,2B,,,,,,,,,,,,,,,yes,,,2022-01-26T15:35:55.000Z,362390,group_4,403058,Memory1/Cat.4,1,2022-01-26T14:40:17.000Z,,,,not measured,,True
11,CategorizationSeg_4,4,CategorizationSeg_4,4,11,,,,,,,3,,,,,,,,,,,,,,,,,,,,,,,,,,,,,,,,,,,,,,,,,,,,,,,,,,2B,,,,,,,,,,,,,,,yes,,,2022-01-26T15:35:55.000Z,362390,group_4,403058,Memory1/Cat.4,1,2022-01-26T14:40:17.000Z,,,,not measured,,True
11,CategorizationSeg_4,4,CategorizationSeg_4,5,1,,,,,,,1,,,,,,,,,,,,,,,,,,,,,,,,,,,,,,,,,Every 4 seconds (every 2 measures),Every 4 seconds (every 2 measures),,,,,,,,Incorrect,Incorrect,1526.0,1235.0,,,,,intact,,,,,,,,,,,,,,,yes,,,2022-01-26T15:35:55.000Z,362390,group_4,403058,Memory1/Cat.4,1,2022-01-26T14:40:17.000Z,,,,not measured,,True
11,CategorizationSeg_4,4,CategorizationSeg_4,6,8,,,,,,,2,,,,,,,,,,,,,,,,,,,,,,,,,,,,,,,,,Every 4 seconds (every 2 measures),Every 2 seconds (every 1 measure),,,,,,,,Incorrect,Incorrect,1557.0,1558.0,,,,,8B,,,,,,,,,,,,,,,yes,,,2022-01-26T15:35:55.000Z,362390,group_4,403058,Memory1/Cat.4,1,2022-01-26T14:40:17.000Z,,,,not measured,,True
11,CategorizationSeg_4,4,CategorizationSeg_4,7,3,,,,,,,1,,,,,,,,,,,,,,,,,,,,,,,,,,,,,,,,,Every 16 seconds (every 8 measures),Every 16 seconds (every 8 measures),,,,,,,,Incorrect,Incorrect,1939.0,1298.0,,,,,intact,,,,,,,,,,,,,,,yes,,,2022-01-26T15:35:55.000Z,362390,group_4,403058,Memory1/Cat.4,1,2022-01-26T14:40:17.000Z,,,,not measured,,True
11,CategorizationSeg_4,4,CategorizationSeg_4,8,16,,,,,,,4,,,,,,,,,,,,,,,,,,,,,,,,,,,,,,,,,Every 2 seconds (every 1 measure),Every 4 seconds (every 2 measures),,,,,,,,Correct,Incorrect,2271.0,1576.0,,,,,1B,,,,,,,,,,,,,,,yes,,,2022-01-26T15:35:55.000Z,362390,group_4,403058,Memory1/Cat.4,1,2022-01-26T14:40:17.000Z,,,,not measured,,True
11,CategorizationSeg_4,3,Ready?,1,1,,,,,,,1,,,,,,,,,,,,,,,,,,,,,,,,,,,,,,,,,,,,,,,,,,,,,,,,,,,,,,,,,,,,,,,,,yes,,,2022-01-26T15:35:55.000Z,362390,group_4,403058,Memory1/Cat.4,1,2022-01-26T14:40:17.000Z,,,,not measured,,True
11,CategorizationSeg_4,2,Practice_Categorization,1,2,,,,,,,2,,,,,,,,,,,,,,,,,,,,,,,,,,,,,,,,,Every 16 seconds (every 8 measures),Every 4 seconds (every 2 measures),,,,,8B,,,Incorrect,Incorrect,6526.0,7369.0,,,,,,,,,,,,,,,,,,,,yes,,,2022-01-26T15:35:55.000Z,362390,group_4,403058,Memory1/Cat.4,1,2022-01-26T14:40:17.000Z,,,,not measured,,True
11,CategorizationSeg_4,1,Instructions for Categorization Seg.,1,1,,,,,,,1,,,,,,,,,,,,,,,,,,,,,,,,,,,,,,,,,,,,,,,,,,,,,,,,,,,,,,,,,,,,,,,,,yes,,,2022-01-26T15:35:55.000Z,362390,group_4,403058,Memory1/Cat.4,1,2022-01-26T14:40:17.000Z,,,,not measured,,True
9,Memory 1,4,Memory_1,1,59,,,,,Second,3_1B_memory_4.mp3,6,,,,,incorrect_left,,,,,,,,,,,,,,,,,,,,,,,,,,,,,,,,,,,,Correct,,,,2230.0,,,,,,,1B,,,,,,,,,,,,,yes,,,2022-01-26T15:35:55.000Z,362390,group_4,403058,Memory1/Cat.4,1,2022-01-26T14:40:17.000Z,,,,not measured,,True
9,Memory 1,4,Memory_1,2,25,,,,,First,2_2B_memory_5.mp3,3,,,,,correct_left,,,,,,,,,,,,,,,,,,,,,,,,,,,,,,,,,,,,Correct,,,,1221.0,,,,,,,2B,,,,,,,,,,,,,yes,,,2022-01-26T15:35:55.000Z,362390,group_4,403058,Memory1/Cat.4,1,2022-01-26T14:40:17.000Z,,,,not measured,,True
9,Memory 1,4,Memory_1,3,56,,,,,Second,3_1B_memory_1.mp3,6,,,,,incorrect_left,,,,,,,,,,,,,,,,,,,,,,,,,,,,,,,,,,,,Correct,,,,1960.0,,,,,,,1B,,,,,,,,,,,,,yes,,,2022-01-26T15:35:55.000Z,362390,group_4,403058,Memory1/Cat.4,1,2022-01-26T14:40:17.000Z,,,,not measured,,True
9,Memory 1,4,Memory_1,4,27,,,,,Second,3_2B_memory_2.mp3,3,,,,,correct_left,,,,,,,,,,,,,,,,,,,,,,,,,,,,,,,,,,,,Incorrect,,,,1645.0,,,,,,,2B,,,,,,,,,,,,,yes,,,2022-01-26T15:35:55.000Z,362390,group_4,403058,Memory1/Cat.4,1,2022-01-26T14:40:17.000Z,,,,not measured,,True
9,Memory 1,4,Memory_1,5,54,,,,,Second,2_1B_memory_4.mp3,6,,,,,incorrect_left,,,,,,,,,,,,,,,,,,,,,,,,,,,,,,,,,,,,Correct,,,,2290.0,,,,,,,1B,,,,,,,,,,,,,yes,,,2022-01-26T15:35:55.000Z,362390,group_4,403058,Memory1/Cat.4,1,2022-01-26T14:40:17.000Z,,,,not measured,,True
9,Memory 1,4,Memory_1,6,22,,,,,Second,2_2B_memory_2.mp3,3,,,,,correct_left,,,,,,,,,,,,,,,,,,,,,,,,,,,,,,,,,,,,Incorrect,,,,774.0,,,,,,,2B,,,,,,,,,,,,,yes,,,2022-01-26T15:35:55.000Z,362390,group_4,403058,Memory1/Cat.4,1,2022-01-26T14:40:17.000Z,,,,not measured,,True
9,Memory 1,4,Memory_1,7,9,,,,,First,3_8B_memory_4.mp3,1,,,,,correct_left,,,,,,,,,,,,,,,,,,,,,,,,,,,,,,,,,,,,Correct,,,,858.0,,,,,,,8B,,,,,,,,,,,,,yes,,,2022-01-26T15:35:55.000Z,362390,group_4,403058,Memory1/Cat.4,1,2022-01-26T14:40:17.000Z,,,,not measured,,True
9,Memory 1,4,Memory_1,8,38,,,,,Second,3_2B_memory_3.mp3,4,,,,,incorrect_left,,,,,,,,,,,,,,,,,,,,,,,,,,,,,,,,,,,,Correct,,,,2011.0,,,,,,,2B,,,,,,,,,,,,,yes,,,2022-01-26T15:35:55.000Z,362390,group_4,403058,Memory1/Cat.4,1,2022-01-26T14:40:17.000Z,,,,not measured,,True
9,Memory 1,4,Memory_1,9,58,,,,,Second,3_1B_memory_3.mp3,6,,,,,incorrect_left,,,,,,,,,,,,,,,,,,,,,,,,,,,,,,,,,,,,Correct,,,,2299.0,,,,,,,1B,,,,,,,,,,,,,yes,,,2022-01-26T15:35:55.000Z,362390,group_4,403058,Memory1/Cat.4,1,2022-01-26T14:40:17.000Z,,,,not measured,,True
9,Memory 1,4,Memory_1,10,18,,,,,Second,3_8B_memory_3.mp3,2,,,,,incorrect_left,,,,,,,,,,,,,,,,,,,,,,,,,,,,,,,,,,,,Correct,,,,979.0,,,,,,,8B,,,,,,,,,,,,,yes,,,2022-01-26T15:35:55.000Z,362390,group_4,403058,Memory1/Cat.4,1,2022-01-26T14:40:17.000Z,,,,not measured,,True
9,Memory 1,4,Memory_1,11,23,,,,,Second,2_2B_memory_3.mp3,3,,,,,correct_left,,,,,,,,,,,,,,,,,,,,,,,,,,,,,,,,,,,,Incorrect,,,,626.0,,,,,,,2B,,,,,,,,,,,,,yes,,,2022-01-26T15:35:55.000Z,362390,group_4,403058,Memory1/Cat.4,1,2022-01-26T14:40:17.000Z,,,,not measured,,True
9,Memory 1,4,Memory_1,12,12,,,,,First,2_8B_memory_2.mp3,2,,,,,incorrect_left,,,,,,,,,,,,,,,,,,,,,,,,,,,,,,,,,,,,Incorrect,,,,2553.0,,,,,,,8B,,,,,,,,,,,,,yes,,,2022-01-26T15:35:55.000Z,362390,group_4,403058,Memory1/Cat.4,1,2022-01-26T14:40:17.000Z,,,,not measured,,True
9,Memory 1,4,Memory_1,13,57,,,,,First,3_1B_memory_2.mp3,6,,,,,incorrect_left,,,,,,,,,,,,,,,,,,,,,,,,,,,,,,,,,,,,Incorrect,,,,753.0,,,,,,,1B,,,,,,,,,,,,,yes,,,2022-01-26T15:35:55.000Z,362390,group_4,403058,Memory1/Cat.4,1,2022-01-26T14:40:17.000Z,,,,not measured,,True
9,Memory 1,4,Memory_1,14,34,,,,,Second,2_2B_memory_4.mp3,4,,,,,incorrect_left,,,,,,,,,,,,,,,,,,,,,,,,,,,,,,,,,,,,Correct,,,,769.0,,,,,,,2B,,,,,,,,,,,,,yes,,,2022-01-26T15:35:55.000Z,362390,group_4,403058,Memory1/Cat.4,1,2022-01-26T14:40:17.000Z,,,,not measured,,True
9,Memory 1,4,Memory_1,15,30,,,,,Second,3_2B_memory_5.mp3,3,,,,,correct_left,,,,,,,,,,,,,,,,,,,,,,,,,,,,,,,,,,,,Incorrect,,,,615.0,,,,,,,2B,,,,,,,,,,,,,yes,,,2022-01-26T15:35:55.000Z,362390,group_4,403058,Memory1/Cat.4,1,2022-01-26T14:40:17.000Z,,,,not measured,,True
9,Memory 1,4,Memory_1,16,60,,,,,Second,3_1B_memory_5.mp3,6,,,,,incorrect_left,,,,,,,,,,,,,,,,,,,,,,,,,,,,,,,,,,,,Correct,,,,1007.0,,,,,,,1B,,,,,,,,,,,,,yes,,,2022-01-26T15:35:55.000Z,362390,group_4,403058,Memory1/Cat.4,1,2022-01-26T14:40:17.000Z,,,,not measured,,True
9,Memory 1,4,Memory_1,17,5,,,,,First,2_8B_memory_5.mp3,1,,,,,correct_left,,,,,,,,,,,,,,,,,,,,,,,,,,,,,,,,,,,,Correct,,,,958.0,,,,,,,8B,,,,,,,,,,,,,yes,,,2022-01-26T15:35:55.000Z,362390,group_4,403058,Memory1/Cat.4,1,2022-01-26T14:40:17.000Z,,,,not measured,,True
9,Memory 1,4,Memory_1,18,13,,,,,Second,2_8B_memory_3.mp3,2,,,,,incorrect_left,,,,,,,,,,,,,,,,,,,,,,,,,,,,,,,,,,,,Correct,,,,1094.0,,,,,,,8B,,,,,,,,,,,,,yes,,,2022-01-26T15:35:55.000Z,362390,group_4,403058,Memory1/Cat.4,1,2022-01-26T14:40:17.000Z,,,,not measured,,True
9,Memory 1,4,Memory_1,19,1,,,,,First,2_8B_memory_1.mp3,1,,,,,correct_left,,,,,,,,,,,,,,,,,,,,,,,,,,,,,,,,,,,,Correct,,,,573.0,,,,,,,8B,,,,,,,,,,,,,yes,,,2022-01-26T15:35:55.000Z,362390,group_4,403058,Memory1/Cat.4,1,2022-01-26T14:40:17.000Z,,,,not measured,,True
9,Memory 1,4,Memory_1,20,45,,,,,First,2_1B_memory_5.mp3,5,,,,,correct_left,,,,,,,,,,,,,,,,,,,,,,,,,,,,,,,,,,,,Correct,,,,1378.0,,,,,,,1B,,,,,,,,,,,,,yes,,,2022-01-26T15:35:55.000Z,362390,group_4,403058,Memory1/Cat.4,1,2022-01-26T14:40:17.000Z,,,,not measured,,True
9,Memory 1,4,Memory_1,21,29,,,,,First,3_2B_memory_4.mp3,3,,,,,correct_left,,,,,,,,,,,,,,,,,,,,,,,,,,,,,,,,,,,,Correct,,,,583.0,,,,,,,2B,,,,,,,,,,,,,yes,,,2022-01-26T15:35:55.000Z,362390,group_4,403058,Memory1/Cat.4,1,2022-01-26T14:40:17.000Z,,,,not measured,,True
9,Memory 1,4,Memory_1,22,41,,,,,First,2_1B_memory_1.mp3,5,,,,,correct_left,,,,,,,,,,,,,,,,,,,,,,,,,,,,,,,,,,,,Correct,,,,625.0,,,,,,,1B,,,,,,,,,,,,,yes,,,2022-01-26T15:35:55.000Z,362390,group_4,403058,Memory1/Cat.4,1,2022-01-26T14:40:17.000Z,,,,not measured,,True
9,Memory 1,4,Memory_1,23,4,,,,,First,2_8B_memory_4.mp3,1,,,,,correct_left,,,,,,,,,,,,,,,,,,,,,,,,,,,,,,,,,,,,Correct,,,,1172.0,,,,,,,8B,,,,,,,,,,,,,yes,,,2022-01-26T15:35:55.000Z,362390,group_4,403058,Memory1/Cat.4,1,2022-01-26T14:40:17.000Z,,,,not measured,,True
9,Memory 1,4,Memory_1,24,52,,,,,Second,2_1B_memory_2.mp3,6,,,,,incorrect_left,,,,,,,,,,,,,,,,,,,,,,,,,,,,,,,,,,,,Correct,,,,1455.0,,,,,,,1B,,,,,,,,,,,,,yes,,,2022-01-26T15:35:55.000Z,362390,group_4,403058,Memory1/Cat.4,1,2022-01-26T14:40:17.000Z,,,,not measured,,True
9,Memory 1,4,Memory_1,25,10,,,,,,3_8B_memory_5.mp3,1,,,,,correct_left,,,,,,,,,,,,,,,,,,,,,,,,,,,,,,,,,,,,,,,,,,,,,,,8B,,,,,,,,,,,,,yes,,,2022-01-26T15:35:55.000Z,362390,group_4,403058,Memory1/Cat.4,1,2022-01-26T14:40:17.000Z,,,,not measured,,True
9,Memory 1,4,Memory_1,26,43,,,,,First,2_1B_memory_3.mp3,5,,,,,correct_left,,,,,,,,,,,,,,,,,,,,,,,,,,,,,,,,,,,,Correct,,,,897.0,,,,,,,1B,,,,,,,,,,,,,yes,,,2022-01-26T15:35:55.000Z,362390,group_4,403058,Memory1/Cat.4,1,2022-01-26T14:40:17.000Z,,,,not measured,,True
9,Memory 1,4,Memory_1,27,36,,,,,Second,3_2B_memory_1.mp3,4,,,,,incorrect_left,,,,,,,,,,,,,,,,,,,,,,,,,,,,,,,,,,,,Correct,,,,593.0,,,,,,,2B,,,,,,,,,,,,,yes,,,2022-01-26T15:35:55.000Z,362390,group_4,403058,Memory1/Cat.4,1,2022-01-26T14:40:17.000Z,,,,not measured,,True
9,Memory 1,4,Memory_1,28,16,,,,,First,3_8B_memory_1.mp3,2,,,,,incorrect_left,,,,,,,,,,,,,,,,,,,,,,,,,,,,,,,,,,,,Incorrect,,,,482.0,,,,,,,8B,,,,,,,,,,,,,yes,,,2022-01-26T15:35:55.000Z,362390,group_4,403058,Memory1/Cat.4,1,2022-01-26T14:40:17.000Z,,,,not measured,,True
9,Memory 1,4,Memory_1,29,7,,,,,First,3_8B_memory_2.mp3,1,,,,,correct_left,,,,,,,,,,,,,,,,,,,,,,,,,,,,,,,,,,,,Correct,,,,730.0,,,,,,,8B,,,,,,,,,,,,,yes,,,2022-01-26T15:35:55.000Z,362390,group_4,403058,Memory1/Cat.4,1,2022-01-26T14:40:17.000Z,,,,not measured,,True
9,Memory 1,4,Memory_1,30,31,,,,,,2_2B_memory_1.mp3,4,,,,,incorrect_left,,,,,,,,,,,,,,,,,,,,,,,,,,,,,,,,,,,,,,,,,,,,,,,2B,,,,,,,,,,,,,yes,,,2022-01-26T15:35:55.000Z,362390,group_4,403058,Memory1/Cat.4,1,2022-01-26T14:40:17.000Z,,,,not measured,,True
9,Memory 1,3,Ready?,1,1,,,,,,,1,,,,,,,,,,,,,,,,,,,,,,,,,,,,,,,,,,,,,,,,,,,,,,,,,,,,,,,,,,,,,,,,,yes,,,2022-01-26T15:35:55.000Z,362390,group_4,403058,Memory1/Cat.4,1,2022-01-26T14:40:17.000Z,,,,not measured,,True
9,Memory 1,2,Practice_Memory,1,6,,,,,Second,,2,,,,,,,,,incorrect_correc,,,,,,,,,,,,,,,,,,,,,,,,,,,,,,,,Correct,,,,1240.0,,,,,,,,,,,,,,,,,,,,yes,,,2022-01-26T15:35:55.000Z,362390,group_4,403058,Memory1/Cat.4,1,2022-01-26T14:40:17.000Z,,,,not measured,,True
9,Memory 1,2,Practice_Memory,2,1,,,,,First,,1,,,,,,,,,correct_incorrect,,,,,,,,,,,,,,,,,,,,,,,,,,,,,,,,Correct,,,,843.0,,,,,,,,,,,,,,,,,,,,yes,,,2022-01-26T15:35:55.000Z,362390,group_4,403058,Memory1/Cat.4,1,2022-01-26T14:40:17.000Z,,,,not measured,,True
9,Memory 1,2,Practice_Memory,3,2,,,,,First,,1,,,,,,,,,correct_incorrect,,,,,,,,,,,,,,,,,,,,,,,,,,,,,,,,Correct,,,,1459.0,,,,,,,,,,,,,,,,,,,,yes,,,2022-01-26T15:35:55.000Z,362390,group_4,403058,Memory1/Cat.4,1,2022-01-26T14:40:17.000Z,,,,not measured,,True
9,Memory 1,1,Instructions_Memory,1,1,,,,,,,1,,,,,,,,,,,,,,,,,,,,,,,,,,,,,,,,,,,,,,,,,,,,,,,,,,,,,,,,,,,,,,,,,yes,,,2022-01-26T15:35:55.000Z,362390,group_4,403058,Memory1/Cat.4,1,2022-01-26T14:40:17.000Z,,,,not measured,,True
7,AP_Screen,3,imported_AP_eval,1,1,,,,,,,1,,,,,,,,,,,,,,,,,,,,,,,,,,,,,,,0.0,,,,,,,,,,,,,,,,,,,,,,,,,,,,,,,,,,yes,,,2022-01-26T15:35:55.000Z,362390,group_4,403058,Memory1/Cat.4,1,2022-01-26T14:40:17.000Z,,,,not measured,,True
7,AP_Screen,2,imported_AP_headphone test,1,3,,,,,,,3,,,,,,,,,,,,one,,,,,,,,,,,,,,,1.0,,,,0.0,,,,,,,,,,,,,,,,,,,,,,,,,,,,,,,,S_O_I,,yes,,,2022-01-26T15:35:55.000Z,362390,group_4,403058,Memory1/Cat.4,1,2022-01-26T14:40:17.000Z,,,,not measured,,True
7,AP_Screen,2,imported_AP_headphone test,2,6,,,,,,,6,,,,,,,,,,,,three,,,,,,,,,,,,,,,1.0,,,,0.0,,,,,,,,,,,,,,,,,,,,,,,,,,,,,,,,O_I_S,,yes,,,2022-01-26T15:35:55.000Z,362390,group_4,403058,Memory1/Cat.4,1,2022-01-26T14:40:17.000Z,,,,not measured,,True
7,AP_Screen,2,imported_AP_headphone test,3,2,,,,,,,2,,,,,,,,,,,,two,,,,,,,,,,,,,,,1.0,,,,0.0,,,,,,,,,,,,,,,,,,,,,,,,,,,,,,,,I_S_O,,yes,,,2022-01-26T15:35:55.000Z,362390,group_4,403058,Memory1/Cat.4,1,2022-01-26T14:40:17.000Z,,,,not measured,,True
7,AP_Screen,2,imported_AP_headphone test,4,5,,,,,,,5,,,,,,,,,,,,two,,,,,,,,,,,,,,,1.0,,,,0.0,,,,,,,,,,,,,,,,,,,,,,,,,,,,,,,,O_S_I,,yes,,,2022-01-26T15:35:55.000Z,362390,group_4,403058,Memory1/Cat.4,1,2022-01-26T14:40:17.000Z,,,,not measured,,True
7,AP_Screen,2,imported_AP_headphone test,5,4,,,,,,,4,,,,,,,,,,,,one,,,,,,,,,,,,,,,1.0,,,,0.0,,,,,,,,,,,,,,,,,,,,,,,,,,,,,,,,S_I_O,,yes,,,2022-01-26T15:35:55.000Z,362390,group_4,403058,Memory1/Cat.4,1,2022-01-26T14:40:17.000Z,,,,not measured,,True
7,AP_Screen,2,imported_AP_headphone test,6,1,,,,,,,1,,,,,,,,,,,,three,,,,,,,,,,,,,,,1.0,,,,0.0,,,,,,,,,,,,,,,,,,,,,,,,,,,,,,,,I_O_S,,yes,,,2022-01-26T15:35:55.000Z,362390,group_4,403058,Memory1/Cat.4,1,2022-01-26T14:40:17.000Z,,,,not measured,,True
7,AP_Screen,1,imported_AP_instruction,1,1,,,,,,,1,,,,,,,,,,,,,,,,,,,,,,,,,,,,,,,,,,,,,,,,,,,,,,,,,,,,,,,,,,,,,,,,,yes,,,2022-01-26T15:35:55.000Z,362390,group_4,403058,Memory1/Cat.4,1,2022-01-26T14:40:17.000Z,,,,not measured,,True
6,HP_Screen,3,imported_HP Evaluation,1,1,,,,,,,1,,,,,,,,,,,,,,0.0,,,,,,,,,,,,,,,,,,,,,,,,,,,,,,,,,,,,,,,,,,,,,,,,,,,yes,,,2022-01-26T15:35:55.000Z,362390,group_4,403058,Memory1/Cat.4,1,2022-01-26T14:40:17.000Z,,,,not measured,,True
6,HP_Screen,2,imported_HP Trials,1,4,,,,,,,1,,,,,,,,,,,,,,0.0,,,"""times=;;;;;;;;;;;;;;;;;---values=;;;;;;;;;;;;;;;;;""",hp2.1.flac,,,,,,,,,,,,,,,,,,,,,,,choice 1,,,,,,,,,,,,,,,,,,,hp2.1.flac,,,,,yes,,,2022-01-26T15:35:55.000Z,362390,group_4,403058,Memory1/Cat.4,1,2022-01-26T14:40:17.000Z,,,,not measured,,True
6,HP_Screen,2,imported_HP Trials,2,1,,,,,,,1,,,,,,,,,,,,,,0.0,,,"""times=;;;;;;;;;;;;;;;;;---values=;;;;;;;;;;;;;;;;;""",hp1.2.flac,,,,,,,,,,,,,,,,,,,,,,,choice 2,,,,,,,,,,,,,,,,,,,hp1.2.flac,,,,,yes,,,2022-01-26T15:35:55.000Z,362390,group_4,403058,Memory1/Cat.4,1,2022-01-26T14:40:17.000Z,,,,not measured,,True
6,HP_Screen,2,imported_HP Trials,3,5,,,,,,,1,,,,,,,,,,,,,,0.0,,,"""times=;;;;;;;;;;;;;;;;;---values=;;;;;;;;;;;;;;;;;""",hp5.2.flac,,,,,,,,,,,,,,,,,,,,,,,choice 2,,,,,,,,,,,,,,,,,,,hp5.2.flac,,,,,yes,,,2022-01-26T15:35:55.000Z,362390,group_4,403058,Memory1/Cat.4,1,2022-01-26T14:40:17.000Z,,,,not measured,,True
6,HP_Screen,2,imported_HP Trials,4,3,,,,,,,1,,,,,,,,,,,,,,0.0,,,"""times=;;;;;;;;;;;;;;;;;---values=;;;;;;;;;;;;;;;;;""",hp3.1.flac,,,,,,,,,,,,,,,,,,,,,,,choice 1,,,,,,,,,,,,,,,,,,,hp3.1.flac,,,,,yes,,,2022-01-26T15:35:55.000Z,362390,group_4,403058,Memory1/Cat.4,1,2022-01-26T14:40:17.000Z,,,,not measured,,True
6,HP_Screen,2,imported_HP Trials,5,2,,,,,,,1,,,,,,,,,,,,,,0.0,,,"""times=;;;;;;;;;;;;;;;;;---values=;;;;;;;;;;;;;;;;;""",hp6.1.flac,,,,,,,,,,,,,,,,,,,,,,,choice 1,,,,,,,,,,,,,,,,,,,hp6.1.flac,,,,,yes,,,2022-01-26T15:35:55.000Z,362390,group_4,403058,Memory1/Cat.4,1,2022-01-26T14:40:17.000Z,,,,not measured,,True
6,HP_Screen,2,imported_HP Trials,6,6,,,,,,,1,,,,,,,,,,,,,,0.0,,,"""times=;;;;;;;;;;;;;;;;;---values=;;;;;;;;;;;;;;;;;""",hp2.3.flac,,,,,,,,,,,,,,,,,,,,,,,choice 3,,,,,,,,,,,,,,,,,,,hp2.3.flac,,,,,yes,,,2022-01-26T15:35:55.000Z,362390,group_4,403058,Memory1/Cat.4,1,2022-01-26T14:40:17.000Z,,,,not measured,,True
6,HP_Screen,1,imported_HP Instructions,1,1,,,,,,,1,,,,,,,,,,,,,,,1.0,,,,,,,,,,,,,,,,,,,,,,,,,,,,,,,,,,,,,,,,,,,,,,,,,,yes,,,2022-01-26T15:35:55.000Z,362390,group_4,403058,Memory1/Cat.4,1,2022-01-26T14:40:17.000Z,,,,not measured,,True
4,GenInstructMemCat,1,InstructionsMemCat,1,1,,,,,,,1,,,,,,,,,,,,,,,,,,,,,,,,,,,,,,,,,,,,,,,,,,,,,,,,,,,,,,,,,,,,,,,,,yes,,,2022-01-26T15:35:55.000Z,362390,group_4,403058,Memory1/Cat.4,1,2022-01-26T14:40:17.000Z,,,,not measured,,True
2,Consent,1,Consent,1,1,,,,,,,1,,,,,,,,,,,,,,,,,,,,,,,,,,,,,,,,,,,,,,,,,,,,,,,,,,,,,,,,,,,,,,,,,yes,,,2022-01-26T15:35:55.000Z,362390,group_4,403058,Memory1/Cat.4,1,2022-01-26T14:40:17.000Z,,,,not measured,,True
