Block_Nr,Block_Name,Task_Nr,Task_Name,Trial_Nr,Trial_Id,ab_pitch,age_range,answer,best_instru,choice,clip,Condition_Id,conditions,consent,correct_incorrect_m_2,correct_incorrect_m_3,correct_incorrect_mem_1,correct_incorrect_p_1,correct_incorrect_p_2,correct_incorrect_p_3,correct_incorrect_practice_m,correct_incorrect_practice_p,correctCount,decision,earworm,errorCount,exampleCount,familiarity,fileArray,filePick,Frequenc,genre,genre_3,genre_4,hour,imagery,imagery_2,Instr,isCorrect,listen_time,music_theory,name_instru,nrErrors,num_instru,participant_choice,participant_choice_2,participant_choice2,participant_spacePress,participant_spacePress2,played_notplayed,practice_catseg_scramble,relative_pitch,response,response_seg,response_seg2,response_Time2,responseTime,retestCount,scramble_cat_1,scramble_cat_3,scramble_cat_4,scramble_catseg_4,scramble_level,scramble_m_1,scramble_m_2,scramble_m_3,scramble_open_3,scramble_p_1,scramble_p_2,scramble_p_3,set1response,soundName,strategy,time_atClipStart1,toneSequence,always_fullscreen,completed,crowdsourcing_code,crowdsourcing_subj_id,end_time,exp_subject_id,group_name,rec_session_id,session_name,session_nr,start_time,subj_counter_global,subj_counter_per_group,subject_code,time_delay_offset,time_measure_std,unlocked
13,Post-Survey,1,Post-Survey,1,1,I don't know,10-20,,Guitar,,,1,,,,,,,,,,,,,5.0,,,3.0,,,Weekly,Rock,Blues,Jazz,1.5 hours,,4.0,10 or more years,,15-30 min,3 years,"Guitar, bass",,2.0,,,,,,option_1,,No,,,,,,,,,,,,,,,,,,,,,At first I was counting the beats but then I started using a chronometre that I started at the  beginning of the song and stopped it when I noticed a change,,,,yes,,,2022-01-26T14:57:09.000Z,362350,group_11,403017,Prediction2/Cat.3,1,2022-01-26T14:11:55.000Z,,,,not measured,,True
11,CategorizationSeg_3,4,CategorizationSeg_3,1,14,,,,,,,4,,,,,,,,,,,,,,,,,,,,,,,,,,,,,,,,,,Never,,,,,,,,,Incorrect,1869.0,,,,1B,,,,,,,,,,,,,,,,,yes,,,2022-01-26T14:57:09.000Z,362350,group_11,403017,Prediction2/Cat.3,1,2022-01-26T14:11:55.000Z,,,,not measured,,True
11,CategorizationSeg_3,4,CategorizationSeg_3,2,15,,,,,,,4,,,,,,,,,,,,,,,,,,,,,,,,,,,,,,,,,Every 4 seconds (every 2 measures),Every 4 seconds (every 2 measures),,,,,,,,Incorrect,Incorrect,1468.0,1932.0,,,1B,,,,,,,,,,,,,,,,,yes,,,2022-01-26T14:57:09.000Z,362350,group_11,403017,Prediction2/Cat.3,1,2022-01-26T14:11:55.000Z,,,,not measured,,True
11,CategorizationSeg_3,4,CategorizationSeg_3,3,2,,,,,,,1,,,,,,,,,,,,,,,,,,,,,,,,,,,,,,,,,Never,Never,,,,,,,,Correct,Correct,1803.0,750.0,,,intact,,,,,,,,,,,,,,,,,yes,,,2022-01-26T14:57:09.000Z,362350,group_11,403017,Prediction2/Cat.3,1,2022-01-26T14:11:55.000Z,,,,not measured,,True
11,CategorizationSeg_3,4,CategorizationSeg_3,4,7,,,,,,,2,,,,,,,,,,,,,,,,,,,,,,,,,,,,,,,,,Never,Never,,,,,,,,Incorrect,Incorrect,3645.0,988.0,,,8B,,,,,,,,,,,,,,,,,yes,,,2022-01-26T14:57:09.000Z,362350,group_11,403017,Prediction2/Cat.3,1,2022-01-26T14:11:55.000Z,,,,not measured,,True
11,CategorizationSeg_3,4,CategorizationSeg_3,5,1,,,,,,,1,,,,,,,,,,,,,,,,,,,,,,,,,,,,,,,,,Never,Never,,,,,,,,Correct,Correct,850.0,999.0,,,intact,,,,,,,,,,,,,,,,,yes,,,2022-01-26T14:57:09.000Z,362350,group_11,403017,Prediction2/Cat.3,1,2022-01-26T14:11:55.000Z,,,,not measured,,True
11,CategorizationSeg_3,4,CategorizationSeg_3,6,9,,,,,,,3,,,,,,,,,,,,,,,,,,,,,,,,,,,,,,,,,Every 4 seconds (every 2 measures),Every 16 seconds (every 8 measures),,,,,,,,Correct,Incorrect,2885.0,1927.0,,,2B,,,,,,,,,,,,,,,,,yes,,,2022-01-26T14:57:09.000Z,362350,group_11,403017,Prediction2/Cat.3,1,2022-01-26T14:11:55.000Z,,,,not measured,,True
11,CategorizationSeg_3,4,CategorizationSeg_3,7,10,,,,,,,3,,,,,,,,,,,,,,,,,,,,,,,,,,,,,,,,,Every 4 seconds (every 2 measures),Every 4 seconds (every 2 measures),,,,,,,,Correct,Correct,2433.0,1280.0,,,2B,,,,,,,,,,,,,,,,,yes,,,2022-01-26T14:57:09.000Z,362350,group_11,403017,Prediction2/Cat.3,1,2022-01-26T14:11:55.000Z,,,,not measured,,True
11,CategorizationSeg_3,4,CategorizationSeg_3,8,6,,,,,,,2,,,,,,,,,,,,,,,,,,,,,,,,,,,,,,,,,Every 16 seconds (every 8 measures),Every 16 seconds (every 8 measures),,,,,,,,Correct,Correct,887.0,1165.0,,,8B,,,,,,,,,,,,,,,,,yes,,,2022-01-26T14:57:09.000Z,362350,group_11,403017,Prediction2/Cat.3,1,2022-01-26T14:11:55.000Z,,,,not measured,,True
11,CategorizationSeg_3,3,Ready?,1,1,,,,,,,1,,,,,,,,,,,,,,,,,,,,,,,,,,,,,,,,,,,,,,,,,,,,,,,,,,,,,,,,,,,,,,,,,yes,,,2022-01-26T14:57:09.000Z,362350,group_11,403017,Prediction2/Cat.3,1,2022-01-26T14:11:55.000Z,,,,not measured,,True
11,CategorizationSeg_3,2,Practice_Categorization,1,2,,,,,,,2,,,,,,,,,,,,,,,,,,,,,,,,,,,,,,,,,Every 16 seconds (every 8 measures),Every 2 seconds (every 1 measure),,,,,8B,,,Incorrect,Incorrect,5514.0,6761.0,,,,,,,,,,,,,,,,,,,,yes,,,2022-01-26T14:57:09.000Z,362350,group_11,403017,Prediction2/Cat.3,1,2022-01-26T14:11:55.000Z,,,,not measured,,True
11,CategorizationSeg_3,1,Instructions for Categorization Seg.,1,1,,,,,,,1,,,,,,,,,,,,,,,,,,,,,,,,,,,,,,,,,,,,,,,,,,,,,,,,,,,,,,,,,,,,,,,,,yes,,,2022-01-26T14:57:09.000Z,362350,group_11,403017,Prediction2/Cat.3,1,2022-01-26T14:11:55.000Z,,,,not measured,,True
9,Prediction 2,4,Prediction_2,1,14,,,,,First,2_8B_prediction_7.mp3,2,,,,,,,incorrect_left,,,,,,,,,,,,,,,,,,,,,,,,,,,,,,,,,,Incorrect,,,,1124.0,,,,,,,,,,,,8B,,,,,,,,yes,,,2022-01-26T14:57:09.000Z,362350,group_11,403017,Prediction2/Cat.3,1,2022-01-26T14:11:55.000Z,,,,not measured,,True
9,Prediction 2,4,Prediction_2,2,49,,,,,Second,4_1B_prediction_4.mp3,5,,,,,,,correct_left,,,,,,,,,,,,,,,,,,,,,,,,,,,,,,,,,,Incorrect,,,,1200.0,,,,,,,,,,,,1B,,,,,,,,yes,,,2022-01-26T14:57:09.000Z,362350,group_11,403017,Prediction2/Cat.3,1,2022-01-26T14:11:55.000Z,,,,not measured,,True
9,Prediction 2,4,Prediction_2,3,55,,,,,Second,2_1B_prediction_8.mp3,6,,,,,,,incorrect_left,,,,,,,,,,,,,,,,,,,,,,,,,,,,,,,,,,Correct,,,,1022.0,,,,,,,,,,,,1B,,,,,,,,yes,,,2022-01-26T14:57:09.000Z,362350,group_11,403017,Prediction2/Cat.3,1,2022-01-26T14:11:55.000Z,,,,not measured,,True
9,Prediction 2,4,Prediction_2,4,34,,,,,Second,2_2B_prediction_7.mp3,4,,,,,,,incorrect_left,,,,,,,,,,,,,,,,,,,,,,,,,,,,,,,,,,Correct,,,,684.0,,,,,,,,,,,,2B,,,,,,,,yes,,,2022-01-26T14:57:09.000Z,362350,group_11,403017,Prediction2/Cat.3,1,2022-01-26T14:11:55.000Z,,,,not measured,,True
9,Prediction 2,4,Prediction_2,5,33,,,,,First,2_2B_prediction_6.mp3,4,,,,,,,incorrect_left,,,,,,,,,,,,,,,,,,,,,,,,,,,,,,,,,,Incorrect,,,,1282.0,,,,,,,,,,,,2B,,,,,,,,yes,,,2022-01-26T14:57:09.000Z,362350,group_11,403017,Prediction2/Cat.3,1,2022-01-26T14:11:55.000Z,,,,not measured,,True
9,Prediction 2,4,Prediction_2,6,18,,,,,Second,4_8B_prediction_3.mp3,2,,,,,,,incorrect_left,,,,,,,,,,,,,,,,,,,,,,,,,,,,,,,,,,Correct,,,,815.0,,,,,,,,,,,,8B,,,,,,,,yes,,,2022-01-26T14:57:09.000Z,362350,group_11,403017,Prediction2/Cat.3,1,2022-01-26T14:11:55.000Z,,,,not measured,,True
9,Prediction 2,4,Prediction_2,7,25,,,,,First,2_2B_prediction_8.mp3,3,,,,,,,correct_left,,,,,,,,,,,,,,,,,,,,,,,,,,,,,,,,,,Correct,,,,1408.0,,,,,,,,,,,,2B,,,,,,,,yes,,,2022-01-26T14:57:09.000Z,362350,group_11,403017,Prediction2/Cat.3,1,2022-01-26T14:11:55.000Z,,,,not measured,,True
9,Prediction 2,4,Prediction_2,8,7,,,,,Second,4_8B_prediction_2.mp3,1,,,,,,,correct_left,,,,,,,,,,,,,,,,,,,,,,,,,,,,,,,,,,Incorrect,,,,850.0,,,,,,,,,,,,8B,,,,,,,,yes,,,2022-01-26T14:57:09.000Z,362350,group_11,403017,Prediction2/Cat.3,1,2022-01-26T14:11:55.000Z,,,,not measured,,True
9,Prediction 2,4,Prediction_2,9,57,,,,,Second,4_1B_prediction_2.mp3,6,,,,,,,incorrect_left,,,,,,,,,,,,,,,,,,,,,,,,,,,,,,,,,,Correct,,,,706.0,,,,,,,,,,,,1B,,,,,,,,yes,,,2022-01-26T14:57:09.000Z,362350,group_11,403017,Prediction2/Cat.3,1,2022-01-26T14:11:55.000Z,,,,not measured,,True
9,Prediction 2,4,Prediction_2,10,44,,,,,First,2_1B_prediction_7.mp3,5,,,,,,,correct_left,,,,,,,,,,,,,,,,,,,,,,,,,,,,,,,,,,Correct,,,,1330.0,,,,,,,,,,,,1B,,,,,,,,yes,,,2022-01-26T14:57:09.000Z,362350,group_11,403017,Prediction2/Cat.3,1,2022-01-26T14:11:55.000Z,,,,not measured,,True
9,Prediction 2,4,Prediction_2,11,12,,,,,Second,2_8B_prediction_5.mp3,2,,,,,,,incorrect_left,,,,,,,,,,,,,,,,,,,,,,,,,,,,,,,,,,Correct,,,,656.0,,,,,,,,,,,,8B,,,,,,,,yes,,,2022-01-26T14:57:09.000Z,362350,group_11,403017,Prediction2/Cat.3,1,2022-01-26T14:11:55.000Z,,,,not measured,,True
9,Prediction 2,4,Prediction_2,12,37,,,,,First,4_2B_prediction_2.mp3,4,,,,,,,incorrect_left,,,,,,,,,,,,,,,,,,,,,,,,,,,,,,,,,,Incorrect,,,,1128.0,,,,,,,,,,,,2B,,,,,,,,yes,,,2022-01-26T14:57:09.000Z,362350,group_11,403017,Prediction2/Cat.3,1,2022-01-26T14:11:55.000Z,,,,not measured,,True
9,Prediction 2,4,Prediction_2,13,60,,,,,Second,4_1B_prediction_5.mp3,6,,,,,,,incorrect_left,,,,,,,,,,,,,,,,,,,,,,,,,,,,,,,,,,Correct,,,,457.0,,,,,,,,,,,,1B,,,,,,,,yes,,,2022-01-26T14:57:09.000Z,362350,group_11,403017,Prediction2/Cat.3,1,2022-01-26T14:11:55.000Z,,,,not measured,,True
9,Prediction 2,4,Prediction_2,14,29,,,,,First,4_2B_prediction_4.mp3,3,,,,,,,correct_left,,,,,,,,,,,,,,,,,,,,,,,,,,,,,,,,,,Correct,,,,1823.0,,,,,,,,,,,,2B,,,,,,,,yes,,,2022-01-26T14:57:09.000Z,362350,group_11,403017,Prediction2/Cat.3,1,2022-01-26T14:11:55.000Z,,,,not measured,,True
9,Prediction 2,4,Prediction_2,15,9,,,,,Second,4_8B_prediction_4.mp3,1,,,,,,,correct_left,,,,,,,,,,,,,,,,,,,,,,,,,,,,,,,,,,Incorrect,,,,482.0,,,,,,,,,,,,8B,,,,,,,,yes,,,2022-01-26T14:57:09.000Z,362350,group_11,403017,Prediction2/Cat.3,1,2022-01-26T14:11:55.000Z,,,,not measured,,True
9,Prediction 2,4,Prediction_2,16,40,,,,,Second,4_2B_prediction_5.mp3,4,,,,,,,incorrect_left,,,,,,,,,,,,,,,,,,,,,,,,,,,,,,,,,,Correct,,,,528.0,,,,,,,,,,,,2B,,,,,,,,yes,,,2022-01-26T14:57:09.000Z,362350,group_11,403017,Prediction2/Cat.3,1,2022-01-26T14:11:55.000Z,,,,not measured,,True
9,Prediction 2,4,Prediction_2,17,16,,,,,Second,4_8B_prediction_1.mp3,2,,,,,,,incorrect_left,,,,,,,,,,,,,,,,,,,,,,,,,,,,,,,,,,Correct,,,,519.0,,,,,,,,,,,,8B,,,,,,,,yes,,,2022-01-26T14:57:09.000Z,362350,group_11,403017,Prediction2/Cat.3,1,2022-01-26T14:11:55.000Z,,,,not measured,,True
9,Prediction 2,4,Prediction_2,18,26,,,,,First,4_2B_prediction_1.mp3,3,,,,,,,correct_left,,,,,,,,,,,,,,,,,,,,,,,,,,,,,,,,,,Correct,,,,844.0,,,,,,,,,,,,2B,,,,,,,,yes,,,2022-01-26T14:57:09.000Z,362350,group_11,403017,Prediction2/Cat.3,1,2022-01-26T14:11:55.000Z,,,,not measured,,True
9,Prediction 2,4,Prediction_2,19,5,,,,,First,2_8B_prediction_8.mp3,1,,,,,,,correct_left,,,,,,,,,,,,,,,,,,,,,,,,,,,,,,,,,,Correct,,,,3790.0,,,,,,,,,,,,8B,,,,,,,,yes,,,2022-01-26T14:57:09.000Z,362350,group_11,403017,Prediction2/Cat.3,1,2022-01-26T14:11:55.000Z,,,,not measured,,True
9,Prediction 2,4,Prediction_2,20,13,,,,,Second,2_8B_prediction_6.mp3,2,,,,,,,incorrect_left,,,,,,,,,,,,,,,,,,,,,,,,,,,,,,,,,,Correct,,,,810.0,,,,,,,,,,,,8B,,,,,,,,yes,,,2022-01-26T14:57:09.000Z,362350,group_11,403017,Prediction2/Cat.3,1,2022-01-26T14:11:55.000Z,,,,not measured,,True
9,Prediction 2,4,Prediction_2,21,42,,,,,First,2_1B_prediction_5.mp3,5,,,,,,,correct_left,,,,,,,,,,,,,,,,,,,,,,,,,,,,,,,,,,Correct,,,,1638.0,,,,,,,,,,,,1B,,,,,,,,yes,,,2022-01-26T14:57:09.000Z,362350,group_11,403017,Prediction2/Cat.3,1,2022-01-26T14:11:55.000Z,,,,not measured,,True
9,Prediction 2,4,Prediction_2,22,31,,,,,Second,2_2B_prediction_4.mp3,4,,,,,,,incorrect_left,,,,,,,,,,,,,,,,,,,,,,,,,,,,,,,,,,Correct,,,,746.0,,,,,,,,,,,,2B,,,,,,,,yes,,,2022-01-26T14:57:09.000Z,362350,group_11,403017,Prediction2/Cat.3,1,2022-01-26T14:11:55.000Z,,,,not measured,,True
9,Prediction 2,4,Prediction_2,23,28,,,,,Second,4_2B_prediction_3.mp3,3,,,,,,,correct_left,,,,,,,,,,,,,,,,,,,,,,,,,,,,,,,,,,Incorrect,,,,579.0,,,,,,,,,,,,2B,,,,,,,,yes,,,2022-01-26T14:57:09.000Z,362350,group_11,403017,Prediction2/Cat.3,1,2022-01-26T14:11:55.000Z,,,,not measured,,True
9,Prediction 2,4,Prediction_2,24,22,,,,,First,2_2B_prediction_5.mp3,3,,,,,,,correct_left,,,,,,,,,,,,,,,,,,,,,,,,,,,,,,,,,,Correct,,,,783.0,,,,,,,,,,,,2B,,,,,,,,yes,,,2022-01-26T14:57:09.000Z,362350,group_11,403017,Prediction2/Cat.3,1,2022-01-26T14:11:55.000Z,,,,not measured,,True
9,Prediction 2,4,Prediction_2,25,10,,,,,First,4_8B_prediction_8.mp3,1,,,,,,,correct_left,,,,,,,,,,,,,,,,,,,,,,,,,,,,,,,,,,Correct,,,,1447.0,,,,,,,,,,,,8B,,,,,,,,yes,,,2022-01-26T14:57:09.000Z,362350,group_11,403017,Prediction2/Cat.3,1,2022-01-26T14:11:55.000Z,,,,not measured,,True
9,Prediction 2,4,Prediction_2,26,51,,,,,Second,2_1B_prediction_4.mp3,6,,,,,,,incorrect_left,,,,,,,,,,,,,,,,,,,,,,,,,,,,,,,,,,Correct,,,,1076.0,,,,,,,,,,,,1B,,,,,,,,yes,,,2022-01-26T14:57:09.000Z,362350,group_11,403017,Prediction2/Cat.3,1,2022-01-26T14:11:55.000Z,,,,not measured,,True
9,Prediction 2,4,Prediction_2,27,1,,,,,First,2_8B_prediction_4.mp3,1,,,,,,,correct_left,,,,,,,,,,,,,,,,,,,,,,,,,,,,,,,,,,Correct,,,,985.0,,,,,,,,,,,,8B,,,,,,,,yes,,,2022-01-26T14:57:09.000Z,362350,group_11,403017,Prediction2/Cat.3,1,2022-01-26T14:11:55.000Z,,,,not measured,,True
9,Prediction 2,4,Prediction_2,28,46,,,,,Second,4_1B_prediction_1.mp3,5,,,,,,,correct_left,,,,,,,,,,,,,,,,,,,,,,,,,,,,,,,,,,Incorrect,,,,842.0,,,,,,,,,,,,1B,,,,,,,,yes,,,2022-01-26T14:57:09.000Z,362350,group_11,403017,Prediction2/Cat.3,1,2022-01-26T14:11:55.000Z,,,,not measured,,True
9,Prediction 2,4,Prediction_2,29,58,,,,,Second,4_1B_prediction_3.mp3,6,,,,,,,incorrect_left,,,,,,,,,,,,,,,,,,,,,,,,,,,,,,,,,,Correct,,,,919.0,,,,,,,,,,,,1B,,,,,,,,yes,,,2022-01-26T14:57:09.000Z,362350,group_11,403017,Prediction2/Cat.3,1,2022-01-26T14:11:55.000Z,,,,not measured,,True
9,Prediction 2,4,Prediction_2,30,43,,,,,Second,2_1B_prediction_6.mp3,5,,,,,,,correct_left,,,,,,,,,,,,,,,,,,,,,,,,,,,,,,,,,,Incorrect,,,,1721.0,,,,,,,,,,,,1B,,,,,,,,yes,,,2022-01-26T14:57:09.000Z,362350,group_11,403017,Prediction2/Cat.3,1,2022-01-26T14:11:55.000Z,,,,not measured,,True
9,Prediction 2,3,Ready?,1,1,,,,,,,1,,,,,,,,,,,,,,,,,,,,,,,,,,,,,,,,,,,,,,,,,,,,,,,,,,,,,,,,,,,,,,,,,yes,,,2022-01-26T14:57:09.000Z,362350,group_11,403017,Prediction2/Cat.3,1,2022-01-26T14:11:55.000Z,,,,not measured,,True
9,Prediction 2,2,Practice_Prediction,1,4,,,,,Second,,2,,,,,,,,,,incorrect_correct,,,,,,,,,,,,,,,,,,,,,,,,,,,,,,,Correct,,,,1545.0,,,,,,,,,,,,,,,,,,,,yes,,,2022-01-26T14:57:09.000Z,362350,group_11,403017,Prediction2/Cat.3,1,2022-01-26T14:11:55.000Z,,,,not measured,,True
9,Prediction 2,2,Practice_Prediction,2,3,,,,,First,,1,,,,,,,,,,correct_incorrect,,,,,,,,,,,,,,,,,,,,,,,,,,,,,,,Correct,,,,930.0,,,,,,,,,,,,,,,,,,,,yes,,,2022-01-26T14:57:09.000Z,362350,group_11,403017,Prediction2/Cat.3,1,2022-01-26T14:11:55.000Z,,,,not measured,,True
9,Prediction 2,2,Practice_Prediction,3,2,,,,,First,,1,,,,,,,,,,correct_incorrect,,,,,,,,,,,,,,,,,,,,,,,,,,,,,,,Correct,,,,945.0,,,,,,,,,,,,,,,,,,,,yes,,,2022-01-26T14:57:09.000Z,362350,group_11,403017,Prediction2/Cat.3,1,2022-01-26T14:11:55.000Z,,,,not measured,,True
9,Prediction 2,1,Instructions_Prediction,1,1,,,,,,,1,,,,,,,,,,,,,,,,,,,,,,,,,,,,,,,,,,,,,,,,,,,,,,,,,,,,,,,,,,,,,,,,,yes,,,2022-01-26T14:57:09.000Z,362350,group_11,403017,Prediction2/Cat.3,1,2022-01-26T14:11:55.000Z,,,,not measured,,True
7,HP_Screen,3,imported_HP Evaluation,1,1,,,,,,,1,,,,,,,,,,,,,,0.0,,,,,,,,,,,,,,,,,,,,,,,,,,,,,,,,,,,,,,,,,,,,,,,,,,,yes,,,2022-01-26T14:57:09.000Z,362350,group_11,403017,Prediction2/Cat.3,1,2022-01-26T14:11:55.000Z,,,,not measured,,True
7,HP_Screen,2,imported_HP Trials,1,2,,,,,,,1,,,,,,,,,,,,,,0.0,,,"""times=;;;;;;;;;;;;;;;;;---values=;;;;;;;;;;;;;;;;;""",hp4.3.flac,,,,,,,,,,,,,,,,,,,,,,,choice 3,,,,,,,,,,,,,,,,,,,hp4.3.flac,,,,,yes,,,2022-01-26T14:57:09.000Z,362350,group_11,403017,Prediction2/Cat.3,1,2022-01-26T14:11:55.000Z,,,,not measured,,True
7,HP_Screen,2,imported_HP Trials,2,3,,,,,,,1,,,,,,,,,,,,,,0.0,,,"""times=;;;;;;;;;;;;;;;;;---values=;;;;;;;;;;;;;;;;;""",hp5.1.flac,,,,,,,,,,,,,,,,,,,,,,,choice 1,,,,,,,,,,,,,,,,,,,hp5.1.flac,,,,,yes,,,2022-01-26T14:57:09.000Z,362350,group_11,403017,Prediction2/Cat.3,1,2022-01-26T14:11:55.000Z,,,,not measured,,True
7,HP_Screen,2,imported_HP Trials,3,5,,,,,,,1,,,,,,,,,,,,,,0.0,,,"""times=;;;;;;;;;;;;;;;;;---values=;;;;;;;;;;;;;;;;;""",hp6.1.flac,,,,,,,,,,,,,,,,,,,,,,,choice 1,,,,,,,,,,,,,,,,,,,hp6.1.flac,,,,,yes,,,2022-01-26T14:57:09.000Z,362350,group_11,403017,Prediction2/Cat.3,1,2022-01-26T14:11:55.000Z,,,,not measured,,True
7,HP_Screen,2,imported_HP Trials,4,1,,,,,,,1,,,,,,,,,,,,,,0.0,,,"""times=;;;;;;;;;;;;;;;;;---values=;;;;;;;;;;;;;;;;;""",hp6.3.flac,,,,,,,,,,,,,,,,,,,,,,,choice 3,,,,,,,,,,,,,,,,,,,hp6.3.flac,,,,,yes,,,2022-01-26T14:57:09.000Z,362350,group_11,403017,Prediction2/Cat.3,1,2022-01-26T14:11:55.000Z,,,,not measured,,True
7,HP_Screen,2,imported_HP Trials,5,6,,,,,,,1,,,,,,,,,,,,,,0.0,,,"""times=;;;;;;;;;;;;;;;;;---values=;;;;;;;;;;;;;;;;;""",hp3.1.flac,,,,,,,,,,,,,,,,,,,,,,,choice 1,,,,,,,,,,,,,,,,,,,hp3.1.flac,,,,,yes,,,2022-01-26T14:57:09.000Z,362350,group_11,403017,Prediction2/Cat.3,1,2022-01-26T14:11:55.000Z,,,,not measured,,True
7,HP_Screen,2,imported_HP Trials,6,4,,,,,,,1,,,,,,,,,,,,,,0.0,,,"""times=;;;;;;;;;;;;;;;;;---values=;;;;;;;;;;;;;;;;;""",hp6.2.flac,,,,,,,,,,,,,,,,,,,,,,,choice 2,,,,,,,,,,,,,,,,,,,hp6.2.flac,,,,,yes,,,2022-01-26T14:57:09.000Z,362350,group_11,403017,Prediction2/Cat.3,1,2022-01-26T14:11:55.000Z,,,,not measured,,True
7,HP_Screen,1,imported_HP Instructions,1,1,,,,,,,1,,,,,,,,,,,,,,,2.0,,,,,,,,,,,,,,,,,,,,,,,,,,,,,,,,,,,,,,,,,,,,,,,,,,yes,,,2022-01-26T14:57:09.000Z,362350,group_11,403017,Prediction2/Cat.3,1,2022-01-26T14:11:55.000Z,,,,not measured,,True
6,AP_Screen,3,imported_AP_eval,1,1,,,,,,,1,,,,,,,,,,,,,,,,,,,,,,,,,,,,,,,0.0,,,,,,,,,,,,,,,,,,,,,,,,,,,,,,,,,,yes,,,2022-01-26T14:57:09.000Z,362350,group_11,403017,Prediction2/Cat.3,1,2022-01-26T14:11:55.000Z,,,,not measured,,True
6,AP_Screen,2,imported_AP_headphone test,1,6,,,,,,,6,,,,,,,,,,,,three,,,,,,,,,,,,,,,1.0,,,,0.0,,,,,,,,,,,,,,,,,,,,,,,,,,,,,,,,O_I_S,,yes,,,2022-01-26T14:57:09.000Z,362350,group_11,403017,Prediction2/Cat.3,1,2022-01-26T14:11:55.000Z,,,,not measured,,True
6,AP_Screen,2,imported_AP_headphone test,2,5,,,,,,,5,,,,,,,,,,,,two,,,,,,,,,,,,,,,1.0,,,,0.0,,,,,,,,,,,,,,,,,,,,,,,,,,,,,,,,O_S_I,,yes,,,2022-01-26T14:57:09.000Z,362350,group_11,403017,Prediction2/Cat.3,1,2022-01-26T14:11:55.000Z,,,,not measured,,True
6,AP_Screen,2,imported_AP_headphone test,3,4,,,,,,,4,,,,,,,,,,,,one,,,,,,,,,,,,,,,1.0,,,,0.0,,,,,,,,,,,,,,,,,,,,,,,,,,,,,,,,S_I_O,,yes,,,2022-01-26T14:57:09.000Z,362350,group_11,403017,Prediction2/Cat.3,1,2022-01-26T14:11:55.000Z,,,,not measured,,True
6,AP_Screen,2,imported_AP_headphone test,4,3,,,,,,,3,,,,,,,,,,,,one,,,,,,,,,,,,,,,1.0,,,,0.0,,,,,,,,,,,,,,,,,,,,,,,,,,,,,,,,S_O_I,,yes,,,2022-01-26T14:57:09.000Z,362350,group_11,403017,Prediction2/Cat.3,1,2022-01-26T14:11:55.000Z,,,,not measured,,True
6,AP_Screen,2,imported_AP_headphone test,5,2,,,,,,,2,,,,,,,,,,,,two,,,,,,,,,,,,,,,1.0,,,,0.0,,,,,,,,,,,,,,,,,,,,,,,,,,,,,,,,I_S_O,,yes,,,2022-01-26T14:57:09.000Z,362350,group_11,403017,Prediction2/Cat.3,1,2022-01-26T14:11:55.000Z,,,,not measured,,True
6,AP_Screen,2,imported_AP_headphone test,6,1,,,,,,,1,,,,,,,,,,,,three,,,,,,,,,,,,,,,1.0,,,,0.0,,,,,,,,,,,,,,,,,,,,,,,,,,,,,,,,I_O_S,,yes,,,2022-01-26T14:57:09.000Z,362350,group_11,403017,Prediction2/Cat.3,1,2022-01-26T14:11:55.000Z,,,,not measured,,True
6,AP_Screen,1,imported_AP_instruction,1,1,,,,,,,1,,,,,,,,,,,,,,,,,,,,,,,,,,,,,,,,,,,,,,,,,,,,,,,,,,,,,,,,,,,,,,,,,yes,,,2022-01-26T14:57:09.000Z,362350,group_11,403017,Prediction2/Cat.3,1,2022-01-26T14:11:55.000Z,,,,not measured,,True
4,GenInstructPredCat,1,InstructionsPredCat,1,1,,,,,,,1,,,,,,,,,,,,,,,,,,,,,,,,,,,,,,,,,,,,,,,,,,,,,,,,,,,,,,,,,,,,,,,,,yes,,,2022-01-26T14:57:09.000Z,362350,group_11,403017,Prediction2/Cat.3,1,2022-01-26T14:11:55.000Z,,,,not measured,,True
2,Consent,1,Consent,1,1,,,,,,,1,,,,,,,,,,,,,,,,,,,,,,,,,,,,,,,,,,,,,,,,,,,,,,,,,,,,,,,,,,,,,,,,,yes,,,2022-01-26T14:57:09.000Z,362350,group_11,403017,Prediction2/Cat.3,1,2022-01-26T14:11:55.000Z,,,,not measured,,True
