Block_Nr,Block_Name,Task_Nr,Task_Name,Trial_Nr,Trial_Id,ab_pitch,age_range,answer,best_instru,choice,clip,Condition_Id,conditions,consent,correct_incorrect_m_2,correct_incorrect_m_3,correct_incorrect_mem_1,correct_incorrect_p_1,correct_incorrect_p_2,correct_incorrect_p_3,correct_incorrect_practice_m,correct_incorrect_practice_p,correctCount,decision,earworm,errorCount,exampleCount,familiarity,fileArray,filePick,Frequenc,genre,genre_3,genre_4,hour,imagery,imagery_2,Instr,isCorrect,listen_time,music_theory,name_instru,nrErrors,num_instru,participant_choice,participant_choice_2,participant_choice2,participant_spacePress,participant_spacePress2,played_notplayed,practice_catseg_scramble,relative_pitch,response,response_seg,response_seg2,response_Time2,responseTime,retestCount,scramble_cat_1,scramble_cat_3,scramble_cat_4,scramble_catseg_4,scramble_level,scramble_m_1,scramble_m_2,scramble_m_3,scramble_open_3,scramble_p_1,scramble_p_2,scramble_p_3,set1response,soundName,strategy,time_atClipStart1,toneSequence,always_fullscreen,completed,crowdsourcing_code,crowdsourcing_subj_id,end_time,exp_subject_id,group_name,rec_session_id,session_name,session_nr,start_time,subj_counter_global,subj_counter_per_group,subject_code,time_delay_offset,time_measure_std,unlocked
13,Post-Survey,1,Post-Survey,1,1,,,,,,,1,,,,,,,,,,,,,,,,1.0,,,,,,,,,,,,,,,,,,,,,,option_1,,,,,,,,,,,,,,,,,,,,,,,"Didn't use any strategy, just tried to focus as hard as possible. Had a better understanding of the song the seconc time it got played though.",,,,yes,,,2022-01-26T20:21:53.000Z,362637,group_1,403329,Memory1/Open4,1,2022-01-26T19:37:56.000Z,,,,not measured,,True
11,OpenEndedSeg_4,4,OpenEndedSeg_4,1,14,,,,,,,4,,,,,,,,,,,,,,,,,,,,,,,,,,,,,,,,,,,,"""times=1643227387231;1643227392926;1643227401374;1643227406719;1643227409214;1643227412950;1643227420558;1643227430662;1643227442974;1643227449262---values=2458;8153;16601;21946;24441;28177;35785;45889;58201;64489""","""times=1643227384771;1643227454366;1643227460254;1643227468454;1643227477877;1643227480414;1643227487542;1643227498261;1643227515414---values=;2543;8431;16631;26054;28591;35719;46438;63591""",,,,,,,,,,,,1B,,,,,,,,,,,,,,,,yes,,,2022-01-26T20:21:53.000Z,362637,group_1,403329,Memory1/Open4,1,2022-01-26T19:37:56.000Z,,,,not measured,,True
11,OpenEndedSeg_4,4,OpenEndedSeg_4,2,3,,,,,,,1,,,,,,,,,,,,,,,,,,,,,,,,,,,,,,,,,,,,"""times=1643227519396;1643227530613;1643227536925;1643227546357;1643227558030;1643227565397---values=;11216;17528;26960;38632;46000""","""times=1643227519396;1643227593429;1643227599749;1643227608444;1643227620053;1643227627549;1643227640661---values=;11155;17475;26170;37779;45274;58387""",,,,,,,,,,,,intact,,,,,,,,,,,,,,,,yes,,,2022-01-26T20:21:53.000Z,362637,group_1,403329,Memory1/Open4,1,2022-01-26T19:37:56.000Z,,,,not measured,,True
11,OpenEndedSeg_4,4,OpenEndedSeg_4,3,2,,,,,,,1,,,,,,,,,,,,,,,,,,,,,,,,,,,,,,,,,,,,"""times=1643227645687;1643227649317;1643227657733;1643227665989;1643227688341;1643227705116---values=;3628;12045;20301;42653;59428""","""times=1643227645687;1643227717028;1643227723708;1643227731077;1643227742278;1643227748004;1643227762964;1643227771380---values=;4842;11522;18891;30092;35818;50778;59194""",,,,,,,,,,,,intact,,,,,,,,,,,,,,,,yes,,,2022-01-26T20:21:53.000Z,362637,group_1,403329,Memory1/Open4,1,2022-01-26T19:37:56.000Z,,,,not measured,,True
11,OpenEndedSeg_4,4,OpenEndedSeg_4,4,10,,,,,,,3,,,,,,,,,,,,,,,,,,,,,,,,,,,,,,,,,,,,"""times=1643227779188;1643227784028;1643227792604;1643227798973;1643227807188;1643227819995;1643227831084;1643227836251---values=;4838;13414;19783;27998;40805;51894;57061""","""times=1643227779188;1643227850211;1643227858924;1643227866548;1643227882307;1643227886515;1643227901291---values=;4530;13243;20867;36626;40834;55610""",,,,,,,,,,,,2B,,,,,,,,,,,,,,,,yes,,,2022-01-26T20:21:53.000Z,362637,group_1,403329,Memory1/Open4,1,2022-01-26T19:37:56.000Z,,,,not measured,,True
11,OpenEndedSeg_4,4,OpenEndedSeg_4,5,15,,,,,,,4,,,,,,,,,,,,,,,,,,,,,,,,,,,,,,,,,,,,"""times=1643227912706;1643227921564;1643227941515;1643227948811;1643227956059;1643227965147;1643227973795---values=;8857;28808;36104;43352;52440;61088""","""times=1643227912706;1643227988659;1643228008356;1643228015739;1643228022835;1643228031043;1643228040642---values=;8826;28523;35905;43002;51210;60809""",,,,,,,,,,,,1B,,,,,,,,,,,,,,,,yes,,,2022-01-26T20:21:53.000Z,362637,group_1,403329,Memory1/Open4,1,2022-01-26T19:37:56.000Z,,,,not measured,,True
11,OpenEndedSeg_4,4,OpenEndedSeg_4,6,12,,,,,,,3,,,,,,,,,,,,,,,,,,,,,,,,,,,,,,,,,,,,"""times=1643228047473;1643228056427;1643228066963;1643228089074;1643228098578---values=;8953;19489;41600;51104""","""times=1643228047474;1643228116851;1643228130458;1643228151497;1643228163371---values=;6364;19971;41010;52883""",,,,,,,,,,,,2B,,,,,,,,,,,,,,,,yes,,,2022-01-26T20:21:53.000Z,362637,group_1,403329,Memory1/Open4,1,2022-01-26T19:37:56.000Z,,,,not measured,,True
11,OpenEndedSeg_4,4,OpenEndedSeg_4,7,6,,,,,,,2,,,,,,,,,,,,,,,,,,,,,,,,,,,,,,,,,,,,"""times=1643228174016;1643228184938;1643228206818;1643228222890---values=;10921;32801;48873""","""times=1643228174016;1643228251818;1643228267105;1643228273890;1643228292313---values=;10783;26070;32855;51278""",,,,,,,,,,,,8B,,,,,,,,,,,,,,,,yes,,,2022-01-26T20:21:53.000Z,362637,group_1,403329,Memory1/Open4,1,2022-01-26T19:37:56.000Z,,,,not measured,,True
11,OpenEndedSeg_4,4,OpenEndedSeg_4,8,5,,,,,,,2,,,,,,,,,,,,,,,,,,,,,,,,,,,,,,,,,,,,"""times=1643228308548;1643228325169;1643228337145;1643228355185---values=;16621;28597;46637""","""times=1643228308548;1643228381129;1643228389216;1643228400808;1643228417944---values=;9536;17623;29215;46351""",,,,,,,,,,,,8B,,,,,,,,,,,,,,,,yes,,,2022-01-26T20:21:53.000Z,362637,group_1,403329,Memory1/Open4,1,2022-01-26T19:37:56.000Z,,,,not measured,,True
11,OpenEndedSeg_4,3,Ready?,1,1,,,,,,,1,,,,,,,,,,,,,,,,,,,,,,,,,,,,,,,,,,,,,,,,,,,,,,,,,,,,,,,,,,,,,,,,,yes,,,2022-01-26T20:21:53.000Z,362637,group_1,403329,Memory1/Open4,1,2022-01-26T19:37:56.000Z,,,,not measured,,True
11,OpenEndedSeg_4,2,Practice_OpenEnded,1,1,,,,,,,1,,,,,,,,,,,,,,,,,,,,,,,,,,,,,,,,,,,,,"""times=1643227303704;1643227314671;1643227316607;1643227318750;1643227322086;1643227324111;1643227330263;1643227336766;1643227341190;1643227351462;1643227357630---values=3194;14161;16097;18240;21576;23601;29753;36256;40680;50952;57120""",,,,,,,,,,,,,,,,,,,,,,,,,,,,yes,,,2022-01-26T20:21:53.000Z,362637,group_1,403329,Memory1/Open4,1,2022-01-26T19:37:56.000Z,,,,not measured,,True
11,OpenEndedSeg_4,1,Instructions_Open,1,1,,,,,,,1,,,,,,,,,,,,,,,,,,,,,,,,,,,,,,,,,,,,,,,,,,,,,,,,,,,,,,,,,,,,,,,,,yes,,,2022-01-26T20:21:53.000Z,362637,group_1,403329,Memory1/Open4,1,2022-01-26T19:37:56.000Z,,,,not measured,,True
9,Memory 1,4,Memory_1,1,25,,,,,First,2_2B_memory_5.mp3,3,,,,,correct_left,,,,,,,,,,,,,,,,,,,,,,,,,,,,,,,,,,,,Correct,,,,874.0,,,,,,,2B,,,,,,,,,,,,,yes,,,2022-01-26T20:21:53.000Z,362637,group_1,403329,Memory1/Open4,1,2022-01-26T19:37:56.000Z,,,,not measured,,True
9,Memory 1,4,Memory_1,2,9,,,,,First,3_8B_memory_4.mp3,1,,,,,correct_left,,,,,,,,,,,,,,,,,,,,,,,,,,,,,,,,,,,,Correct,,,,801.0,,,,,,,8B,,,,,,,,,,,,,yes,,,2022-01-26T20:21:53.000Z,362637,group_1,403329,Memory1/Open4,1,2022-01-26T19:37:56.000Z,,,,not measured,,True
9,Memory 1,4,Memory_1,3,17,,,,,First,3_8B_memory_2.mp3,2,,,,,incorrect_left,,,,,,,,,,,,,,,,,,,,,,,,,,,,,,,,,,,,Incorrect,,,,2111.0,,,,,,,8B,,,,,,,,,,,,,yes,,,2022-01-26T20:21:53.000Z,362637,group_1,403329,Memory1/Open4,1,2022-01-26T19:37:56.000Z,,,,not measured,,True
9,Memory 1,4,Memory_1,4,10,,,,,Second,3_8B_memory_5.mp3,1,,,,,correct_left,,,,,,,,,,,,,,,,,,,,,,,,,,,,,,,,,,,,Incorrect,,,,943.0,,,,,,,8B,,,,,,,,,,,,,yes,,,2022-01-26T20:21:53.000Z,362637,group_1,403329,Memory1/Open4,1,2022-01-26T19:37:56.000Z,,,,not measured,,True
9,Memory 1,4,Memory_1,5,29,,,,,First,3_2B_memory_4.mp3,3,,,,,correct_left,,,,,,,,,,,,,,,,,,,,,,,,,,,,,,,,,,,,Correct,,,,912.0,,,,,,,2B,,,,,,,,,,,,,yes,,,2022-01-26T20:21:53.000Z,362637,group_1,403329,Memory1/Open4,1,2022-01-26T19:37:56.000Z,,,,not measured,,True
9,Memory 1,4,Memory_1,6,53,,,,,First,2_1B_memory_3.mp3,6,,,,,incorrect_left,,,,,,,,,,,,,,,,,,,,,,,,,,,,,,,,,,,,Incorrect,,,,1918.0,,,,,,,1B,,,,,,,,,,,,,yes,,,2022-01-26T20:21:53.000Z,362637,group_1,403329,Memory1/Open4,1,2022-01-26T19:37:56.000Z,,,,not measured,,True
9,Memory 1,4,Memory_1,7,8,,,,,First,3_8B_memory_3.mp3,1,,,,,correct_left,,,,,,,,,,,,,,,,,,,,,,,,,,,,,,,,,,,,Correct,,,,1344.0,,,,,,,8B,,,,,,,,,,,,,yes,,,2022-01-26T20:21:53.000Z,362637,group_1,403329,Memory1/Open4,1,2022-01-26T19:37:56.000Z,,,,not measured,,True
9,Memory 1,4,Memory_1,8,28,,,,,First,3_2B_memory_3.mp3,3,,,,,correct_left,,,,,,,,,,,,,,,,,,,,,,,,,,,,,,,,,,,,Correct,,,,764.0,,,,,,,2B,,,,,,,,,,,,,yes,,,2022-01-26T20:21:53.000Z,362637,group_1,403329,Memory1/Open4,1,2022-01-26T19:37:56.000Z,,,,not measured,,True
9,Memory 1,4,Memory_1,9,54,,,,,Second,2_1B_memory_4.mp3,6,,,,,incorrect_left,,,,,,,,,,,,,,,,,,,,,,,,,,,,,,,,,,,,Correct,,,,3787.0,,,,,,,1B,,,,,,,,,,,,,yes,,,2022-01-26T20:21:53.000Z,362637,group_1,403329,Memory1/Open4,1,2022-01-26T19:37:56.000Z,,,,not measured,,True
9,Memory 1,4,Memory_1,10,37,,,,,Second,3_2B_memory_2.mp3,4,,,,,incorrect_left,,,,,,,,,,,,,,,,,,,,,,,,,,,,,,,,,,,,Correct,,,,1188.0,,,,,,,2B,,,,,,,,,,,,,yes,,,2022-01-26T20:21:53.000Z,362637,group_1,403329,Memory1/Open4,1,2022-01-26T19:37:56.000Z,,,,not measured,,True
9,Memory 1,4,Memory_1,11,50,,,,,First,3_1B_memory_5.mp3,5,,,,,correct_left,,,,,,,,,,,,,,,,,,,,,,,,,,,,,,,,,,,,Correct,,,,687.0,,,,,,,1B,,,,,,,,,,,,,yes,,,2022-01-26T20:21:53.000Z,362637,group_1,403329,Memory1/Open4,1,2022-01-26T19:37:56.000Z,,,,not measured,,True
9,Memory 1,4,Memory_1,12,5,,,,,First,2_8B_memory_5.mp3,1,,,,,correct_left,,,,,,,,,,,,,,,,,,,,,,,,,,,,,,,,,,,,Correct,,,,768.0,,,,,,,8B,,,,,,,,,,,,,yes,,,2022-01-26T20:21:53.000Z,362637,group_1,403329,Memory1/Open4,1,2022-01-26T19:37:56.000Z,,,,not measured,,True
9,Memory 1,4,Memory_1,13,16,,,,,Second,3_8B_memory_1.mp3,2,,,,,incorrect_left,,,,,,,,,,,,,,,,,,,,,,,,,,,,,,,,,,,,Correct,,,,733.0,,,,,,,8B,,,,,,,,,,,,,yes,,,2022-01-26T20:21:53.000Z,362637,group_1,403329,Memory1/Open4,1,2022-01-26T19:37:56.000Z,,,,not measured,,True
9,Memory 1,4,Memory_1,14,2,,,,,First,2_8B_memory_2.mp3,1,,,,,correct_left,,,,,,,,,,,,,,,,,,,,,,,,,,,,,,,,,,,,Correct,,,,1775.0,,,,,,,8B,,,,,,,,,,,,,yes,,,2022-01-26T20:21:53.000Z,362637,group_1,403329,Memory1/Open4,1,2022-01-26T19:37:56.000Z,,,,not measured,,True
9,Memory 1,4,Memory_1,15,45,,,,,First,2_1B_memory_5.mp3,5,,,,,correct_left,,,,,,,,,,,,,,,,,,,,,,,,,,,,,,,,,,,,Correct,,,,721.0,,,,,,,1B,,,,,,,,,,,,,yes,,,2022-01-26T20:21:53.000Z,362637,group_1,403329,Memory1/Open4,1,2022-01-26T19:37:56.000Z,,,,not measured,,True
9,Memory 1,4,Memory_1,16,11,,,,,Second,2_8B_memory_1.mp3,2,,,,,incorrect_left,,,,,,,,,,,,,,,,,,,,,,,,,,,,,,,,,,,,Correct,,,,3023.0,,,,,,,8B,,,,,,,,,,,,,yes,,,2022-01-26T20:21:53.000Z,362637,group_1,403329,Memory1/Open4,1,2022-01-26T19:37:56.000Z,,,,not measured,,True
9,Memory 1,4,Memory_1,17,42,,,,,First,2_1B_memory_2.mp3,5,,,,,correct_left,,,,,,,,,,,,,,,,,,,,,,,,,,,,,,,,,,,,Correct,,,,892.0,,,,,,,1B,,,,,,,,,,,,,yes,,,2022-01-26T20:21:53.000Z,362637,group_1,403329,Memory1/Open4,1,2022-01-26T19:37:56.000Z,,,,not measured,,True
9,Memory 1,4,Memory_1,18,34,,,,,Second,2_2B_memory_4.mp3,4,,,,,incorrect_left,,,,,,,,,,,,,,,,,,,,,,,,,,,,,,,,,,,,Correct,,,,869.0,,,,,,,2B,,,,,,,,,,,,,yes,,,2022-01-26T20:21:53.000Z,362637,group_1,403329,Memory1/Open4,1,2022-01-26T19:37:56.000Z,,,,not measured,,True
9,Memory 1,4,Memory_1,19,51,,,,,Second,2_1B_memory_1.mp3,6,,,,,incorrect_left,,,,,,,,,,,,,,,,,,,,,,,,,,,,,,,,,,,,Correct,,,,658.0,,,,,,,1B,,,,,,,,,,,,,yes,,,2022-01-26T20:21:53.000Z,362637,group_1,403329,Memory1/Open4,1,2022-01-26T19:37:56.000Z,,,,not measured,,True
9,Memory 1,4,Memory_1,20,32,,,,,First,2_2B_memory_2.mp3,4,,,,,incorrect_left,,,,,,,,,,,,,,,,,,,,,,,,,,,,,,,,,,,,Incorrect,,,,887.0,,,,,,,2B,,,,,,,,,,,,,yes,,,2022-01-26T20:21:53.000Z,362637,group_1,403329,Memory1/Open4,1,2022-01-26T19:37:56.000Z,,,,not measured,,True
9,Memory 1,4,Memory_1,21,46,,,,,First,3_1B_memory_1.mp3,5,,,,,correct_left,,,,,,,,,,,,,,,,,,,,,,,,,,,,,,,,,,,,Correct,,,,1987.0,,,,,,,1B,,,,,,,,,,,,,yes,,,2022-01-26T20:21:53.000Z,362637,group_1,403329,Memory1/Open4,1,2022-01-26T19:37:56.000Z,,,,not measured,,True
9,Memory 1,4,Memory_1,22,40,,,,,First,3_2B_memory_5.mp3,4,,,,,incorrect_left,,,,,,,,,,,,,,,,,,,,,,,,,,,,,,,,,,,,Incorrect,,,,1083.0,,,,,,,2B,,,,,,,,,,,,,yes,,,2022-01-26T20:21:53.000Z,362637,group_1,403329,Memory1/Open4,1,2022-01-26T19:37:56.000Z,,,,not measured,,True
9,Memory 1,4,Memory_1,23,58,,,,,Second,3_1B_memory_3.mp3,6,,,,,incorrect_left,,,,,,,,,,,,,,,,,,,,,,,,,,,,,,,,,,,,Correct,,,,844.0,,,,,,,1B,,,,,,,,,,,,,yes,,,2022-01-26T20:21:53.000Z,362637,group_1,403329,Memory1/Open4,1,2022-01-26T19:37:56.000Z,,,,not measured,,True
9,Memory 1,4,Memory_1,24,26,,,,,First,3_2B_memory_1.mp3,3,,,,,correct_left,,,,,,,,,,,,,,,,,,,,,,,,,,,,,,,,,,,,Correct,,,,545.0,,,,,,,2B,,,,,,,,,,,,,yes,,,2022-01-26T20:21:53.000Z,362637,group_1,403329,Memory1/Open4,1,2022-01-26T19:37:56.000Z,,,,not measured,,True
9,Memory 1,4,Memory_1,25,31,,,,,First,2_2B_memory_1.mp3,4,,,,,incorrect_left,,,,,,,,,,,,,,,,,,,,,,,,,,,,,,,,,,,,Incorrect,,,,2009.0,,,,,,,2B,,,,,,,,,,,,,yes,,,2022-01-26T20:21:53.000Z,362637,group_1,403329,Memory1/Open4,1,2022-01-26T19:37:56.000Z,,,,not measured,,True
9,Memory 1,4,Memory_1,26,49,,,,,Second,3_1B_memory_4.mp3,5,,,,,correct_left,,,,,,,,,,,,,,,,,,,,,,,,,,,,,,,,,,,,Incorrect,,,,2621.0,,,,,,,1B,,,,,,,,,,,,,yes,,,2022-01-26T20:21:53.000Z,362637,group_1,403329,Memory1/Open4,1,2022-01-26T19:37:56.000Z,,,,not measured,,True
9,Memory 1,4,Memory_1,27,14,,,,,Second,2_8B_memory_4.mp3,2,,,,,incorrect_left,,,,,,,,,,,,,,,,,,,,,,,,,,,,,,,,,,,,Correct,,,,689.0,,,,,,,8B,,,,,,,,,,,,,yes,,,2022-01-26T20:21:53.000Z,362637,group_1,403329,Memory1/Open4,1,2022-01-26T19:37:56.000Z,,,,not measured,,True
9,Memory 1,4,Memory_1,28,57,,,,,First,3_1B_memory_2.mp3,6,,,,,incorrect_left,,,,,,,,,,,,,,,,,,,,,,,,,,,,,,,,,,,,Incorrect,,,,796.0,,,,,,,1B,,,,,,,,,,,,,yes,,,2022-01-26T20:21:53.000Z,362637,group_1,403329,Memory1/Open4,1,2022-01-26T19:37:56.000Z,,,,not measured,,True
9,Memory 1,4,Memory_1,29,33,,,,,First,2_2B_memory_3.mp3,4,,,,,incorrect_left,,,,,,,,,,,,,,,,,,,,,,,,,,,,,,,,,,,,Incorrect,,,,1316.0,,,,,,,2B,,,,,,,,,,,,,yes,,,2022-01-26T20:21:53.000Z,362637,group_1,403329,Memory1/Open4,1,2022-01-26T19:37:56.000Z,,,,not measured,,True
9,Memory 1,4,Memory_1,30,3,,,,,First,2_8B_memory_3.mp3,1,,,,,correct_left,,,,,,,,,,,,,,,,,,,,,,,,,,,,,,,,,,,,Correct,,,,2234.0,,,,,,,8B,,,,,,,,,,,,,yes,,,2022-01-26T20:21:53.000Z,362637,group_1,403329,Memory1/Open4,1,2022-01-26T19:37:56.000Z,,,,not measured,,True
9,Memory 1,3,Ready?,1,1,,,,,,,1,,,,,,,,,,,,,,,,,,,,,,,,,,,,,,,,,,,,,,,,,,,,,,,,,,,,,,,,,,,,,,,,,yes,,,2022-01-26T20:21:53.000Z,362637,group_1,403329,Memory1/Open4,1,2022-01-26T19:37:56.000Z,,,,not measured,,True
9,Memory 1,2,Practice_Memory,1,6,,,,,,,2,,,,,,,,,incorrect_correc,,,,,,,,,,,,,,,,,,,,,,,,,,,,,,,,,,,,,,,,,,,,,,,,,,,,,,,,yes,,,2022-01-26T20:21:53.000Z,362637,group_1,403329,Memory1/Open4,1,2022-01-26T19:37:56.000Z,,,,not measured,,True
9,Memory 1,2,Practice_Memory,2,1,,,,,Second,,1,,,,,,,,,correct_incorrect,,,,,,,,,,,,,,,,,,,,,,,,,,,,,,,,Incorrect,,,,1152.0,,,,,,,,,,,,,,,,,,,,yes,,,2022-01-26T20:21:53.000Z,362637,group_1,403329,Memory1/Open4,1,2022-01-26T19:37:56.000Z,,,,not measured,,True
9,Memory 1,2,Practice_Memory,3,2,,,,,Second,,1,,,,,,,,,correct_incorrect,,,,,,,,,,,,,,,,,,,,,,,,,,,,,,,,Incorrect,,,,683.0,,,,,,,,,,,,,,,,,,,,yes,,,2022-01-26T20:21:53.000Z,362637,group_1,403329,Memory1/Open4,1,2022-01-26T19:37:56.000Z,,,,not measured,,True
9,Memory 1,1,Instructions_Memory,1,1,,,,,,,1,,,,,,,,,,,,,,,,,,,,,,,,,,,,,,,,,,,,,,,,,,,,,,,,,,,,,,,,,,,,,,,,,yes,,,2022-01-26T20:21:53.000Z,362637,group_1,403329,Memory1/Open4,1,2022-01-26T19:37:56.000Z,,,,not measured,,True
7,AP_Screen,3,imported_AP_eval,1,1,,,,,,,1,,,,,,,,,,,,,,,,,,,,,,,,,,,,,,,0.0,,,,,,,,,,,,,,,,,,,,,,,,,,,,,,,,,,yes,,,2022-01-26T20:21:53.000Z,362637,group_1,403329,Memory1/Open4,1,2022-01-26T19:37:56.000Z,,,,not measured,,True
7,AP_Screen,2,imported_AP_headphone test,1,1,,,,,,,1,,,,,,,,,,,,three,,,,,,,,,,,,,,,1.0,,,,0.0,,,,,,,,,,,,,,,,,,,,,,,,,,,,,,,,I_O_S,,yes,,,2022-01-26T20:21:53.000Z,362637,group_1,403329,Memory1/Open4,1,2022-01-26T19:37:56.000Z,,,,not measured,,True
7,AP_Screen,2,imported_AP_headphone test,2,5,,,,,,,5,,,,,,,,,,,,two,,,,,,,,,,,,,,,1.0,,,,0.0,,,,,,,,,,,,,,,,,,,,,,,,,,,,,,,,O_S_I,,yes,,,2022-01-26T20:21:53.000Z,362637,group_1,403329,Memory1/Open4,1,2022-01-26T19:37:56.000Z,,,,not measured,,True
7,AP_Screen,2,imported_AP_headphone test,3,2,,,,,,,2,,,,,,,,,,,,two,,,,,,,,,,,,,,,1.0,,,,0.0,,,,,,,,,,,,,,,,,,,,,,,,,,,,,,,,I_S_O,,yes,,,2022-01-26T20:21:53.000Z,362637,group_1,403329,Memory1/Open4,1,2022-01-26T19:37:56.000Z,,,,not measured,,True
7,AP_Screen,2,imported_AP_headphone test,4,6,,,,,,,6,,,,,,,,,,,,three,,,,,,,,,,,,,,,1.0,,,,0.0,,,,,,,,,,,,,,,,,,,,,,,,,,,,,,,,O_I_S,,yes,,,2022-01-26T20:21:53.000Z,362637,group_1,403329,Memory1/Open4,1,2022-01-26T19:37:56.000Z,,,,not measured,,True
7,AP_Screen,2,imported_AP_headphone test,5,4,,,,,,,4,,,,,,,,,,,,one,,,,,,,,,,,,,,,1.0,,,,0.0,,,,,,,,,,,,,,,,,,,,,,,,,,,,,,,,S_I_O,,yes,,,2022-01-26T20:21:53.000Z,362637,group_1,403329,Memory1/Open4,1,2022-01-26T19:37:56.000Z,,,,not measured,,True
7,AP_Screen,2,imported_AP_headphone test,6,3,,,,,,,3,,,,,,,,,,,,one,,,,,,,,,,,,,,,1.0,,,,0.0,,,,,,,,,,,,,,,,,,,,,,,,,,,,,,,,S_O_I,,yes,,,2022-01-26T20:21:53.000Z,362637,group_1,403329,Memory1/Open4,1,2022-01-26T19:37:56.000Z,,,,not measured,,True
7,AP_Screen,1,imported_AP_instruction,1,1,,,,,,,1,,,,,,,,,,,,,,,,,,,,,,,,,,,,,,,,,,,,,,,,,,,,,,,,,,,,,,,,,,,,,,,,,yes,,,2022-01-26T20:21:53.000Z,362637,group_1,403329,Memory1/Open4,1,2022-01-26T19:37:56.000Z,,,,not measured,,True
6,HP_Screen,3,imported_HP Evaluation,1,1,,,,,,,1,,,,,,,,,,,,,,0.0,,,,,,,,,,,,,,,,,,,,,,,,,,,,,,,,,,,,,,,,,,,,,,,,,,,yes,,,2022-01-26T20:21:53.000Z,362637,group_1,403329,Memory1/Open4,1,2022-01-26T19:37:56.000Z,,,,not measured,,True
6,HP_Screen,2,imported_HP Trials,1,2,,,,,,,1,,,,,,,,,,,,,,0.0,,,"""times=;;;;;;;;;;;;;;;;;---values=;;;;;;;;;;;;;;;;;""",hp3.1.flac,,,,,,,,,,,,,,,,,,,,,,,choice 1,,,,,,,,,,,,,,,,,,,hp3.1.flac,,,,,yes,,,2022-01-26T20:21:53.000Z,362637,group_1,403329,Memory1/Open4,1,2022-01-26T19:37:56.000Z,,,,not measured,,True
6,HP_Screen,2,imported_HP Trials,2,5,,,,,,,1,,,,,,,,,,,,,,0.0,,,"""times=;;;;;;;;;;;;;;;;;---values=;;;;;;;;;;;;;;;;;""",hp6.1.flac,,,,,,,,,,,,,,,,,,,,,,,choice 1,,,,,,,,,,,,,,,,,,,hp6.1.flac,,,,,yes,,,2022-01-26T20:21:53.000Z,362637,group_1,403329,Memory1/Open4,1,2022-01-26T19:37:56.000Z,,,,not measured,,True
6,HP_Screen,2,imported_HP Trials,3,1,,,,,,,1,,,,,,,,,,,,,,0.0,,,"""times=;;;;;;;;;;;;;;;;;---values=;;;;;;;;;;;;;;;;;""",hp4.2.flac,,,,,,,,,,,,,,,,,,,,,,,choice 2,,,,,,,,,,,,,,,,,,,hp4.2.flac,,,,,yes,,,2022-01-26T20:21:53.000Z,362637,group_1,403329,Memory1/Open4,1,2022-01-26T19:37:56.000Z,,,,not measured,,True
6,HP_Screen,2,imported_HP Trials,4,4,,,,,,,1,,,,,,,,,,,,,,0.0,,,"""times=;;;;;;;;;;;;;;;;;---values=;;;;;;;;;;;;;;;;;""",hp5.3.flac,,,,,,,,,,,,,,,,,,,,,,,choice 3,,,,,,,,,,,,,,,,,,,hp5.3.flac,,,,,yes,,,2022-01-26T20:21:53.000Z,362637,group_1,403329,Memory1/Open4,1,2022-01-26T19:37:56.000Z,,,,not measured,,True
6,HP_Screen,2,imported_HP Trials,5,3,,,,,,,1,,,,,,,,,,,,,,0.0,,,"""times=;;;;;;;;;;;;;;;;;---values=;;;;;;;;;;;;;;;;;""",hp4.1.flac,,,,,,,,,,,,,,,,,,,,,,,choice 1,,,,,,,,,,,,,,,,,,,hp4.1.flac,,,,,yes,,,2022-01-26T20:21:53.000Z,362637,group_1,403329,Memory1/Open4,1,2022-01-26T19:37:56.000Z,,,,not measured,,True
6,HP_Screen,2,imported_HP Trials,6,6,,,,,,,1,,,,,,,,,,,,,,0.0,,,"""times=;;;;;;;;;;;;;;;;;---values=;;;;;;;;;;;;;;;;;""",hp6.2.flac,,,,,,,,,,,,,,,,,,,,,,,choice 2,,,,,,,,,,,,,,,,,,,hp6.2.flac,,,,,yes,,,2022-01-26T20:21:53.000Z,362637,group_1,403329,Memory1/Open4,1,2022-01-26T19:37:56.000Z,,,,not measured,,True
6,HP_Screen,1,imported_HP Instructions,1,1,,,,,,,1,,,,,,,,,,,,,,,2.0,,,,,,,,,,,,,,,,,,,,,,,,,,,,,,,,,,,,,,,,,,,,,,,,,,yes,,,2022-01-26T20:21:53.000Z,362637,group_1,403329,Memory1/Open4,1,2022-01-26T19:37:56.000Z,,,,not measured,,True
4,GenInstructMemOpen,1,InstructionsMemOpen,1,1,,,,,,,1,,,,,,,,,,,,,,,,,,,,,,,,,,,,,,,,,,,,,,,,,,,,,,,,,,,,,,,,,,,,,,,,,yes,,,2022-01-26T20:21:53.000Z,362637,group_1,403329,Memory1/Open4,1,2022-01-26T19:37:56.000Z,,,,not measured,,True
2,Consent,1,Consent,1,1,,,,,,,1,,,,,,,,,,,,,,,,,,,,,,,,,,,,,,,,,,,,,,,,,,,,,,,,,,,,,,,,,,,,,,,,,yes,,,2022-01-26T20:21:53.000Z,362637,group_1,403329,Memory1/Open4,1,2022-01-26T19:37:56.000Z,,,,not measured,,True
