Block_Nr,Block_Name,Task_Nr,Task_Name,Trial_Nr,Trial_Id,ab_pitch,age_range,answer,best_instru,choice,clip,Condition_Id,conditions,consent,correct_incorrect_m_2,correct_incorrect_m_3,correct_incorrect_mem_1,correct_incorrect_p_1,correct_incorrect_p_2,correct_incorrect_p_3,correct_incorrect_practice_m,correct_incorrect_practice_p,correctCount,decision,earworm,errorCount,exampleCount,familiarity,fileArray,filePick,Frequenc,genre,genre_3,genre_4,hour,imagery,imagery_2,Instr,isCorrect,listen_time,music_theory,name_instru,nrErrors,num_instru,participant_choice,participant_choice_2,participant_choice2,participant_spacePress,participant_spacePress2,played_notplayed,practice_catseg_scramble,prolific_ID,prolific_ID_copy_30d1,relative_pitch,response,response_seg,response_seg2,response_Time2,responseTime,retestCount,scramble_cat_1,scramble_cat_3,scramble_cat_4,scramble_catseg_4,scramble_level,scramble_m_1,scramble_m_2,scramble_m_3,scramble_open_3,scramble_p_1,scramble_p_2,scramble_p_3,set1response,soundName,strategy,time_atClipStart1,toneSequence,always_fullscreen,completed,crowdsourcing_code,crowdsourcing_subj_id,end_time,exp_subject_id,group_name,rec_session_id,session_name,session_nr,start_time,subj_counter_global,subj_counter_per_group,subject_code,time_delay_offset,time_measure_std,unlocked
6,AP_Screen,1,imported_AP_instruction,1,1,,,,,,,1,,,,,,,,,,,,,,,,,,,,,,,,,,,,,,,,,,,,,,,,,,,,,,,,,,,,,,,,,,,,,,,,,,,yes,,,2022-08-31T20:43:32.000Z,481847,group_4,550712,Memory1/Cat.4,1,2022-08-31T19:58:27.000Z,,,,not measured,,TRUE
6,AP_Screen,2,imported_AP_headphone test,1,6,,,,,,,6,,,,,,,,,,,,three,,,,,,,,,,,,,,,TRUE,,,,0,,,,,,,,,,,,,,,,,,,,,,,,,,,,,,,,,,O_I_S,,yes,,,2022-08-31T20:43:32.000Z,481847,group_4,550712,Memory1/Cat.4,1,2022-08-31T19:58:27.000Z,,,,not measured,,TRUE
6,AP_Screen,2,imported_AP_headphone test,2,4,,,,,,,4,,,,,,,,,,,,one,,,,,,,,,,,,,,,TRUE,,,,0,,,,,,,,,,,,,,,,,,,,,,,,,,,,,,,,,,S_I_O,,yes,,,2022-08-31T20:43:32.000Z,481847,group_4,550712,Memory1/Cat.4,1,2022-08-31T19:58:27.000Z,,,,not measured,,TRUE
6,AP_Screen,2,imported_AP_headphone test,3,1,,,,,,,1,,,,,,,,,,,,three,,,,,,,,,,,,,,,TRUE,,,,0,,,,,,,,,,,,,,,,,,,,,,,,,,,,,,,,,,I_O_S,,yes,,,2022-08-31T20:43:32.000Z,481847,group_4,550712,Memory1/Cat.4,1,2022-08-31T19:58:27.000Z,,,,not measured,,TRUE
6,AP_Screen,2,imported_AP_headphone test,4,3,,,,,,,3,,,,,,,,,,,,one,,,,,,,,,,,,,,,TRUE,,,,0,,,,,,,,,,,,,,,,,,,,,,,,,,,,,,,,,,S_O_I,,yes,,,2022-08-31T20:43:32.000Z,481847,group_4,550712,Memory1/Cat.4,1,2022-08-31T19:58:27.000Z,,,,not measured,,TRUE
6,AP_Screen,2,imported_AP_headphone test,5,5,,,,,,,5,,,,,,,,,,,,two,,,,,,,,,,,,,,,TRUE,,,,0,,,,,,,,,,,,,,,,,,,,,,,,,,,,,,,,,,O_S_I,,yes,,,2022-08-31T20:43:32.000Z,481847,group_4,550712,Memory1/Cat.4,1,2022-08-31T19:58:27.000Z,,,,not measured,,TRUE
6,AP_Screen,2,imported_AP_headphone test,6,2,,,,,,,2,,,,,,,,,,,,two,,,,,,,,,,,,,,,TRUE,,,,0,,,,,,,,,,,,,,,,,,,,,,,,,,,,,,,,,,I_S_O,,yes,,,2022-08-31T20:43:32.000Z,481847,group_4,550712,Memory1/Cat.4,1,2022-08-31T19:58:27.000Z,,,,not measured,,TRUE
6,AP_Screen,3,imported_AP_eval,1,1,,,,,,,1,,,,,,,,,,,,,,,,,,,,,,,,,,,,,,,0,,,,,,,,,,,,,,,,,,,,,,,,,,,,,,,,,,,,yes,,,2022-08-31T20:43:32.000Z,481847,group_4,550712,Memory1/Cat.4,1,2022-08-31T19:58:27.000Z,,,,not measured,,TRUE
7,HP_Screen,3,imported_HP Evaluation,1,1,,,,,,,1,,,,,,,,,,,,,,0,,,,,,,,,,,,,,,,,,,,,,,,,,,,,,,,,,,,,,,,,,,,,,,,,,,,,yes,,,2022-08-31T20:43:32.000Z,481847,group_4,550712,Memory1/Cat.4,1,2022-08-31T19:58:27.000Z,,,,not measured,,TRUE
9,Memory 1,1,Instructions_Memory,1,1,,,,,,,1,,,,,,,,,,,,,,,,,,,,,,,,,,,,,,,,,,,,,,,,,,,,,,,,,,,,,,,,,,,,,,,,,,,yes,,,2022-08-31T20:43:32.000Z,481847,group_4,550712,Memory1/Cat.4,1,2022-08-31T19:58:27.000Z,,,,not measured,,TRUE
9,Memory 1,2,Practice_Memory,1,3,,,,,First,,1,,,,,,,,,correct_incorrect,,,,,,,,,,,,,,,,,,,,,,,,,,,,,,,,,,Correct,,,,1433,,,,,,,,,,,,,,,,,,,,yes,,,2022-08-31T20:43:32.000Z,481847,group_4,550712,Memory1/Cat.4,1,2022-08-31T19:58:27.000Z,,,,not measured,,TRUE
9,Memory 1,2,Practice_Memory,2,1,,,,,First,,1,,,,,,,,,correct_incorrect,,,,,,,,,,,,,,,,,,,,,,,,,,,,,,,,,,Correct,,,,1783,,,,,,,,,,,,,,,,,,,,yes,,,2022-08-31T20:43:32.000Z,481847,group_4,550712,Memory1/Cat.4,1,2022-08-31T19:58:27.000Z,,,,not measured,,TRUE
9,Memory 1,2,Practice_Memory,3,5,,,,,Second,,2,,,,,,,,,incorrect_correc,,,,,,,,,,,,,,,,,,,,,,,,,,,,,,,,,,Correct,,,,1266,,,,,,,,,,,,,,,,,,,,yes,,,2022-08-31T20:43:32.000Z,481847,group_4,550712,Memory1/Cat.4,1,2022-08-31T19:58:27.000Z,,,,not measured,,TRUE
9,Memory 1,3,Ready?,1,1,,,,,,,1,,,,,,,,,,,,,,,,,,,,,,,,,,,,,,,,,,,,,,,,,,,,,,,,,,,,,,,,,,,,,,,,,,,yes,,,2022-08-31T20:43:32.000Z,481847,group_4,550712,Memory1/Cat.4,1,2022-08-31T19:58:27.000Z,,,,not measured,,TRUE
9,Memory 1,4,Memory_1,1,28,,,,,First,3_2B_memory_3.mp3,3,,,,,correct_left,,,,,,,,,,,,,,,,,,,,,,,,,,,,,,,,,,,,,,Correct,,,,1150,,,,,,,2B,,,,,,,,,,,,,yes,,,2022-08-31T20:43:32.000Z,481847,group_4,550712,Memory1/Cat.4,1,2022-08-31T19:58:27.000Z,,,,not measured,,TRUE
9,Memory 1,4,Memory_1,2,13,,,,,First,2_8B_memory_3.mp3,2,,,,,incorrect_left,,,,,,,,,,,,,,,,,,,,,,,,,,,,,,,,,,,,,,Incorrect,,,,2284,,,,,,,8B,,,,,,,,,,,,,yes,,,2022-08-31T20:43:32.000Z,481847,group_4,550712,Memory1/Cat.4,1,2022-08-31T19:58:27.000Z,,,,not measured,,TRUE
9,Memory 1,4,Memory_1,3,32,,,,,First,2_2B_memory_2.mp3,4,,,,,incorrect_left,,,,,,,,,,,,,,,,,,,,,,,,,,,,,,,,,,,,,,Incorrect,,,,2000,,,,,,,2B,,,,,,,,,,,,,yes,,,2022-08-31T20:43:32.000Z,481847,group_4,550712,Memory1/Cat.4,1,2022-08-31T19:58:27.000Z,,,,not measured,,TRUE
9,Memory 1,4,Memory_1,4,10,,,,,Second,3_8B_memory_5.mp3,1,,,,,correct_left,,,,,,,,,,,,,,,,,,,,,,,,,,,,,,,,,,,,,,Incorrect,,,,1533,,,,,,,8B,,,,,,,,,,,,,yes,,,2022-08-31T20:43:32.000Z,481847,group_4,550712,Memory1/Cat.4,1,2022-08-31T19:58:27.000Z,,,,not measured,,TRUE
9,Memory 1,4,Memory_1,5,24,,,,,Second,2_2B_memory_4.mp3,3,,,,,correct_left,,,,,,,,,,,,,,,,,,,,,,,,,,,,,,,,,,,,,,Incorrect,,,,1750,,,,,,,2B,,,,,,,,,,,,,yes,,,2022-08-31T20:43:32.000Z,481847,group_4,550712,Memory1/Cat.4,1,2022-08-31T19:58:27.000Z,,,,not measured,,TRUE
9,Memory 1,4,Memory_1,6,35,,,,,Second,2_2B_memory_5.mp3,4,,,,,incorrect_left,,,,,,,,,,,,,,,,,,,,,,,,,,,,,,,,,,,,,,Correct,,,,1100,,,,,,,2B,,,,,,,,,,,,,yes,,,2022-08-31T20:43:32.000Z,481847,group_4,550712,Memory1/Cat.4,1,2022-08-31T19:58:27.000Z,,,,not measured,,TRUE
9,Memory 1,4,Memory_1,7,54,,,,,Second,2_1B_memory_4.mp3,6,,,,,incorrect_left,,,,,,,,,,,,,,,,,,,,,,,,,,,,,,,,,,,,,,Correct,,,,1384,,,,,,,1B,,,,,,,,,,,,,yes,,,2022-08-31T20:43:32.000Z,481847,group_4,550712,Memory1/Cat.4,1,2022-08-31T19:58:27.000Z,,,,not measured,,TRUE
9,Memory 1,4,Memory_1,8,42,,,,,First,2_1B_memory_2.mp3,5,,,,,correct_left,,,,,,,,,,,,,,,,,,,,,,,,,,,,,,,,,,,,,,Correct,,,,1200,,,,,,,1B,,,,,,,,,,,,,yes,,,2022-08-31T20:43:32.000Z,481847,group_4,550712,Memory1/Cat.4,1,2022-08-31T19:58:27.000Z,,,,not measured,,TRUE
9,Memory 1,4,Memory_1,9,33,,,,,Second,2_2B_memory_3.mp3,4,,,,,incorrect_left,,,,,,,,,,,,,,,,,,,,,,,,,,,,,,,,,,,,,,Correct,,,,1200,,,,,,,2B,,,,,,,,,,,,,yes,,,2022-08-31T20:43:32.000Z,481847,group_4,550712,Memory1/Cat.4,1,2022-08-31T19:58:27.000Z,,,,not measured,,TRUE
9,Memory 1,4,Memory_1,10,47,,,,,First,3_1B_memory_2.mp3,5,,,,,correct_left,,,,,,,,,,,,,,,,,,,,,,,,,,,,,,,,,,,,,,Correct,,,,1000,,,,,,,1B,,,,,,,,,,,,,yes,,,2022-08-31T20:43:32.000Z,481847,group_4,550712,Memory1/Cat.4,1,2022-08-31T19:58:27.000Z,,,,not measured,,TRUE
9,Memory 1,4,Memory_1,11,30,,,,,Second,3_2B_memory_5.mp3,3,,,,,correct_left,,,,,,,,,,,,,,,,,,,,,,,,,,,,,,,,,,,,,,Incorrect,,,,1317,,,,,,,2B,,,,,,,,,,,,,yes,,,2022-08-31T20:43:32.000Z,481847,group_4,550712,Memory1/Cat.4,1,2022-08-31T19:58:27.000Z,,,,not measured,,TRUE
9,Memory 1,4,Memory_1,12,8,,,,,First,3_8B_memory_3.mp3,1,,,,,correct_left,,,,,,,,,,,,,,,,,,,,,,,,,,,,,,,,,,,,,,Correct,,,,784,,,,,,,8B,,,,,,,,,,,,,yes,,,2022-08-31T20:43:32.000Z,481847,group_4,550712,Memory1/Cat.4,1,2022-08-31T19:58:27.000Z,,,,not measured,,TRUE
9,Memory 1,4,Memory_1,13,21,,,,,First,2_2B_memory_1.mp3,3,,,,,correct_left,,,,,,,,,,,,,,,,,,,,,,,,,,,,,,,,,,,,,,Correct,,,,633,,,,,,,2B,,,,,,,,,,,,,yes,,,2022-08-31T20:43:32.000Z,481847,group_4,550712,Memory1/Cat.4,1,2022-08-31T19:58:27.000Z,,,,not measured,,TRUE
9,Memory 1,4,Memory_1,14,12,,,,,Second,2_8B_memory_2.mp3,2,,,,,incorrect_left,,,,,,,,,,,,,,,,,,,,,,,,,,,,,,,,,,,,,,Correct,,,,850,,,,,,,8B,,,,,,,,,,,,,yes,,,2022-08-31T20:43:32.000Z,481847,group_4,550712,Memory1/Cat.4,1,2022-08-31T19:58:27.000Z,,,,not measured,,TRUE
9,Memory 1,4,Memory_1,15,37,,,,,First,3_2B_memory_2.mp3,4,,,,,incorrect_left,,,,,,,,,,,,,,,,,,,,,,,,,,,,,,,,,,,,,,Incorrect,,,,883,,,,,,,2B,,,,,,,,,,,,,yes,,,2022-08-31T20:43:32.000Z,481847,group_4,550712,Memory1/Cat.4,1,2022-08-31T19:58:27.000Z,,,,not measured,,TRUE
9,Memory 1,4,Memory_1,16,56,,,,,Second,3_1B_memory_1.mp3,6,,,,,incorrect_left,,,,,,,,,,,,,,,,,,,,,,,,,,,,,,,,,,,,,,Correct,,,,800,,,,,,,1B,,,,,,,,,,,,,yes,,,2022-08-31T20:43:32.000Z,481847,group_4,550712,Memory1/Cat.4,1,2022-08-31T19:58:27.000Z,,,,not measured,,TRUE
9,Memory 1,4,Memory_1,17,16,,,,,First,3_8B_memory_1.mp3,2,,,,,incorrect_left,,,,,,,,,,,,,,,,,,,,,,,,,,,,,,,,,,,,,,Incorrect,,,,983,,,,,,,8B,,,,,,,,,,,,,yes,,,2022-08-31T20:43:32.000Z,481847,group_4,550712,Memory1/Cat.4,1,2022-08-31T19:58:27.000Z,,,,not measured,,TRUE
9,Memory 1,4,Memory_1,18,48,,,,,First,3_1B_memory_3.mp3,5,,,,,correct_left,,,,,,,,,,,,,,,,,,,,,,,,,,,,,,,,,,,,,,Correct,,,,1434,,,,,,,1B,,,,,,,,,,,,,yes,,,2022-08-31T20:43:32.000Z,481847,group_4,550712,Memory1/Cat.4,1,2022-08-31T19:58:27.000Z,,,,not measured,,TRUE
9,Memory 1,4,Memory_1,19,53,,,,,Second,2_1B_memory_3.mp3,6,,,,,incorrect_left,,,,,,,,,,,,,,,,,,,,,,,,,,,,,,,,,,,,,,Correct,,,,733,,,,,,,1B,,,,,,,,,,,,,yes,,,2022-08-31T20:43:32.000Z,481847,group_4,550712,Memory1/Cat.4,1,2022-08-31T19:58:27.000Z,,,,not measured,,TRUE
9,Memory 1,4,Memory_1,20,1,,,,,Second,2_8B_memory_1.mp3,1,,,,,correct_left,,,,,,,,,,,,,,,,,,,,,,,,,,,,,,,,,,,,,,Incorrect,,,,1684,,,,,,,8B,,,,,,,,,,,,,yes,,,2022-08-31T20:43:32.000Z,481847,group_4,550712,Memory1/Cat.4,1,2022-08-31T19:58:27.000Z,,,,not measured,,TRUE
9,Memory 1,4,Memory_1,21,15,,,,,Second,2_8B_memory_5.mp3,2,,,,,incorrect_left,,,,,,,,,,,,,,,,,,,,,,,,,,,,,,,,,,,,,,Correct,,,,683,,,,,,,8B,,,,,,,,,,,,,yes,,,2022-08-31T20:43:32.000Z,481847,group_4,550712,Memory1/Cat.4,1,2022-08-31T19:58:27.000Z,,,,not measured,,TRUE
9,Memory 1,4,Memory_1,22,41,,,,,First,2_1B_memory_1.mp3,5,,,,,correct_left,,,,,,,,,,,,,,,,,,,,,,,,,,,,,,,,,,,,,,Correct,,,,883,,,,,,,1B,,,,,,,,,,,,,yes,,,2022-08-31T20:43:32.000Z,481847,group_4,550712,Memory1/Cat.4,1,2022-08-31T19:58:27.000Z,,,,not measured,,TRUE
9,Memory 1,4,Memory_1,23,7,,,,,First,3_8B_memory_2.mp3,1,,,,,correct_left,,,,,,,,,,,,,,,,,,,,,,,,,,,,,,,,,,,,,,Correct,,,,1317,,,,,,,8B,,,,,,,,,,,,,yes,,,2022-08-31T20:43:32.000Z,481847,group_4,550712,Memory1/Cat.4,1,2022-08-31T19:58:27.000Z,,,,not measured,,TRUE
9,Memory 1,4,Memory_1,24,49,,,,,First,3_1B_memory_4.mp3,5,,,,,correct_left,,,,,,,,,,,,,,,,,,,,,,,,,,,,,,,,,,,,,,Correct,,,,817,,,,,,,1B,,,,,,,,,,,,,yes,,,2022-08-31T20:43:32.000Z,481847,group_4,550712,Memory1/Cat.4,1,2022-08-31T19:58:27.000Z,,,,not measured,,TRUE
9,Memory 1,4,Memory_1,25,39,,,,,Second,3_2B_memory_4.mp3,4,,,,,incorrect_left,,,,,,,,,,,,,,,,,,,,,,,,,,,,,,,,,,,,,,Correct,,,,833,,,,,,,2B,,,,,,,,,,,,,yes,,,2022-08-31T20:43:32.000Z,481847,group_4,550712,Memory1/Cat.4,1,2022-08-31T19:58:27.000Z,,,,not measured,,TRUE
9,Memory 1,4,Memory_1,26,14,,,,,Second,2_8B_memory_4.mp3,2,,,,,incorrect_left,,,,,,,,,,,,,,,,,,,,,,,,,,,,,,,,,,,,,,Correct,,,,517,,,,,,,8B,,,,,,,,,,,,,yes,,,2022-08-31T20:43:32.000Z,481847,group_4,550712,Memory1/Cat.4,1,2022-08-31T19:58:27.000Z,,,,not measured,,TRUE
9,Memory 1,4,Memory_1,27,36,,,,,First,3_2B_memory_1.mp3,4,,,,,incorrect_left,,,,,,,,,,,,,,,,,,,,,,,,,,,,,,,,,,,,,,Incorrect,,,,1033,,,,,,,2B,,,,,,,,,,,,,yes,,,2022-08-31T20:43:32.000Z,481847,group_4,550712,Memory1/Cat.4,1,2022-08-31T19:58:27.000Z,,,,not measured,,TRUE
9,Memory 1,4,Memory_1,28,19,,,,,Second,3_8B_memory_4.mp3,2,,,,,incorrect_left,,,,,,,,,,,,,,,,,,,,,,,,,,,,,,,,,,,,,,Correct,,,,1217,,,,,,,8B,,,,,,,,,,,,,yes,,,2022-08-31T20:43:32.000Z,481847,group_4,550712,Memory1/Cat.4,1,2022-08-31T19:58:27.000Z,,,,not measured,,TRUE
9,Memory 1,4,Memory_1,29,50,,,,,First,3_1B_memory_5.mp3,5,,,,,correct_left,,,,,,,,,,,,,,,,,,,,,,,,,,,,,,,,,,,,,,Correct,,,,1017,,,,,,,1B,,,,,,,,,,,,,yes,,,2022-08-31T20:43:32.000Z,481847,group_4,550712,Memory1/Cat.4,1,2022-08-31T19:58:27.000Z,,,,not measured,,TRUE
9,Memory 1,4,Memory_1,30,45,,,,,First,2_1B_memory_5.mp3,5,,,,,correct_left,,,,,,,,,,,,,,,,,,,,,,,,,,,,,,,,,,,,,,Correct,,,,1033,,,,,,,1B,,,,,,,,,,,,,yes,,,2022-08-31T20:43:32.000Z,481847,group_4,550712,Memory1/Cat.4,1,2022-08-31T19:58:27.000Z,,,,not measured,,TRUE
11,CategorizationSeg_4,1,Instructions for Categorization Seg.,1,1,,,,,,,1,,,,,,,,,,,,,,,,,,,,,,,,,,,,,,,,,,,,,,,,,,,,,,,,,,,,,,,,,,,,,,,,,,,yes,,,2022-08-31T20:43:32.000Z,481847,group_4,550712,Memory1/Cat.4,1,2022-08-31T19:58:27.000Z,,,,not measured,,TRUE
11,CategorizationSeg_4,2,Practice_Categorization,1,4,,,,,,,4,,,,,,,,,,,,,,,,,,,,,,,,,,,,,,,,,Never,Every 2 seconds (every 1 measure),,,,,1B,,,,,Incorrect,Incorrect,3517,18383,,,,,,,,,,,,,,,,,,,,yes,,,2022-08-31T20:43:32.000Z,481847,group_4,550712,Memory1/Cat.4,1,2022-08-31T19:58:27.000Z,,,,not measured,,TRUE
11,CategorizationSeg_4,3,Ready?,1,1,,,,,,,1,,,,,,,,,,,,,,,,,,,,,,,,,,,,,,,,,,,,,,,,,,,,,,,,,,,,,,,,,,,,,,,,,,,yes,,,2022-08-31T20:43:32.000Z,481847,group_4,550712,Memory1/Cat.4,1,2022-08-31T19:58:27.000Z,,,,not measured,,TRUE
11,CategorizationSeg_4,4,CategorizationSeg_4,1,10,,,,,,,3,,,,,,,,,,,,,,,,,,,,,,,,,,,,,,,,,,Every 4 seconds (every 2 measures),,,,,,,,,,,Correct,1917,,,,,,2B,,,,,,,,,,,,,,,yes,,,2022-08-31T20:43:32.000Z,481847,group_4,550712,Memory1/Cat.4,1,2022-08-31T19:58:27.000Z,,,,not measured,,TRUE
11,CategorizationSeg_4,4,CategorizationSeg_4,2,1,,,,,,,1,,,,,,,,,,,,,,,,,,,,,,,,,,,,,,,,,Never,Every 4 seconds (every 2 measures),,,,,,,,,,Correct,Incorrect,1334,1600,,,,,intact,,,,,,,,,,,,,,,yes,,,2022-08-31T20:43:32.000Z,481847,group_4,550712,Memory1/Cat.4,1,2022-08-31T19:58:27.000Z,,,,not measured,,TRUE
11,CategorizationSeg_4,4,CategorizationSeg_4,3,5,,,,,,,2,,,,,,,,,,,,,,,,,,,,,,,,,,,,,,,,,Every 2 seconds (every 1 measure),Every 2 seconds (every 1 measure),,,,,,,,,,Incorrect,Incorrect,1183,1617,,,,,8B,,,,,,,,,,,,,,,yes,,,2022-08-31T20:43:32.000Z,481847,group_4,550712,Memory1/Cat.4,1,2022-08-31T19:58:27.000Z,,,,not measured,,TRUE
11,CategorizationSeg_4,4,CategorizationSeg_4,4,8,,,,,,,2,,,,,,,,,,,,,,,,,,,,,,,,,,,,,,,,,Every 2 seconds (every 1 measure),Every 4 seconds (every 2 measures),,,,,,,,,,Incorrect,Incorrect,966,916,,,,,8B,,,,,,,,,,,,,,,yes,,,2022-08-31T20:43:32.000Z,481847,group_4,550712,Memory1/Cat.4,1,2022-08-31T19:58:27.000Z,,,,not measured,,TRUE
11,CategorizationSeg_4,4,CategorizationSeg_4,5,11,,,,,,,3,,,,,,,,,,,,,,,,,,,,,,,,,,,,,,,,,Every 4 seconds (every 2 measures),Every 4 seconds (every 2 measures),,,,,,,,,,Correct,Correct,1100,834,,,,,2B,,,,,,,,,,,,,,,yes,,,2022-08-31T20:43:32.000Z,481847,group_4,550712,Memory1/Cat.4,1,2022-08-31T19:58:27.000Z,,,,not measured,,TRUE
11,CategorizationSeg_4,4,CategorizationSeg_4,6,4,,,,,,,1,,,,,,,,,,,,,,,,,,,,,,,,,,,,,,,,,Every 4 seconds (every 2 measures),Every 4 seconds (every 2 measures),,,,,,,,,,Incorrect,Incorrect,1000,783,,,,,intact,,,,,,,,,,,,,,,yes,,,2022-08-31T20:43:32.000Z,481847,group_4,550712,Memory1/Cat.4,1,2022-08-31T19:58:27.000Z,,,,not measured,,TRUE
11,CategorizationSeg_4,4,CategorizationSeg_4,7,13,,,,,,,4,,,,,,,,,,,,,,,,,,,,,,,,,,,,,,,,,Every 16 seconds (every 8 measures),Every 16 seconds (every 8 measures),,,,,,,,,,Incorrect,Incorrect,1250,1383,,,,,1B,,,,,,,,,,,,,,,yes,,,2022-08-31T20:43:32.000Z,481847,group_4,550712,Memory1/Cat.4,1,2022-08-31T19:58:27.000Z,,,,not measured,,TRUE
11,CategorizationSeg_4,4,CategorizationSeg_4,8,14,,,,,,,4,,,,,,,,,,,,,,,,,,,,,,,,,,,,,,,,,Never,Never,,,,,,,,,,Incorrect,Incorrect,1117,750,,,,,1B,,,,,,,,,,,,,,,yes,,,2022-08-31T20:43:32.000Z,481847,group_4,550712,Memory1/Cat.4,1,2022-08-31T19:58:27.000Z,,,,not measured,,TRUE
13,Post-Survey,1,Post-Survey,1,1,,,,,,,1,,,,,,,,,,,,,,,,1,,,,,,,,,,,,,,,,,,,,,,option_1,,,,,,,,,,,,,,,,,,,,,,,,,I counted seconds in my mind.,,,,yes,,,2022-08-31T20:43:32.000Z,481847,group_4,550712,Memory1/Cat.4,1,2022-08-31T19:58:27.000Z,,,,not measured,,TRUE
2,Consent,1,Consent,1,1,,,,,,,1,,,,,,,,,,,,,,,,,,,,,,,,,,,,,,,,,,,,,,,,5ecd7b06a1a9170e7806f51e,,,,,,,,,,,,,,,,,,,,,,,,,,,yes,,,2022-08-31T20:43:32.000Z,481847,group_4,550712,Memory1/Cat.4,1,2022-08-31T19:58:27.000Z,,,,not measured,,TRUE
4,GenInstructMemCat,1,InstructionsMemCat,1,1,,,,,,,1,,,,,,,,,,,,,,,,,,,,,,,,,,,,,,,,,,,,,,,,,,,,,,,,,,,,,,,,,,,,,,,,,,,yes,,,2022-08-31T20:43:32.000Z,481847,group_4,550712,Memory1/Cat.4,1,2022-08-31T19:58:27.000Z,,,,not measured,,TRUE
7,HP_Screen,1,imported_HP Instructions,1,1,,,,,,,1,,,,,,,,,,,,,,,3,,,,,,,,,,,,,,,,,,,,,,,,,,,,,,,,,,,,,,,,,,,,,,,,,,,,yes,,,2022-08-31T20:43:32.000Z,481847,group_4,550712,Memory1/Cat.4,1,2022-08-31T19:58:27.000Z,,,,not measured,,TRUE
7,HP_Screen,2,imported_HP Trials,1,5,,,,,,,1,,,,,,,,,,,,,,0,,,"""times=;;;;;;;;;;;;;;;;;---values=;;;;;;;;;;;;;;;;;""",hp5.1.flac,,,,,,,,,,,,,,,,,,,,,,,,,choice 1,,,,,,,,,,,,,,,,,,,hp5.1.flac,,,,,yes,,,2022-08-31T20:43:32.000Z,481847,group_4,550712,Memory1/Cat.4,1,2022-08-31T19:58:27.000Z,,,,not measured,,TRUE
7,HP_Screen,2,imported_HP Trials,2,1,,,,,,,1,,,,,,,,,,,,,,0,,,"""times=;;;;;;;;;;;;;;;;;---values=;;;;;;;;;;;;;;;;;""",hp6.1.flac,,,,,,,,,,,,,,,,,,,,,,,,,choice 1,,,,,,,,,,,,,,,,,,,hp6.1.flac,,,,,yes,,,2022-08-31T20:43:32.000Z,481847,group_4,550712,Memory1/Cat.4,1,2022-08-31T19:58:27.000Z,,,,not measured,,TRUE
7,HP_Screen,2,imported_HP Trials,3,4,,,,,,,1,,,,,,,,,,,,,,0,,,"""times=;;;;;;;;;;;;;;;;;---values=;;;;;;;;;;;;;;;;;""",hp3.1.flac,,,,,,,,,,,,,,,,,,,,,,,,,choice 1,,,,,,,,,,,,,,,,,,,hp3.1.flac,,,,,yes,,,2022-08-31T20:43:32.000Z,481847,group_4,550712,Memory1/Cat.4,1,2022-08-31T19:58:27.000Z,,,,not measured,,TRUE
7,HP_Screen,2,imported_HP Trials,4,3,,,,,,,1,,,,,,,,,,,,,,0,,,"""times=;;;;;;;;;;;;;;;;;---values=;;;;;;;;;;;;;;;;;""",hp2.1.flac,,,,,,,,,,,,,,,,,,,,,,,,,choice 1,,,,,,,,,,,,,,,,,,,hp2.1.flac,,,,,yes,,,2022-08-31T20:43:32.000Z,481847,group_4,550712,Memory1/Cat.4,1,2022-08-31T19:58:27.000Z,,,,not measured,,TRUE
7,HP_Screen,2,imported_HP Trials,5,6,,,,,,,1,,,,,,,,,,,,,,0,,,"""times=;;;;;;;;;;;;;;;;;---values=;;;;;;;;;;;;;;;;;""",hp4.3.flac,,,,,,,,,,,,,,,,,,,,,,,,,choice 3,,,,,,,,,,,,,,,,,,,hp4.3.flac,,,,,yes,,,2022-08-31T20:43:32.000Z,481847,group_4,550712,Memory1/Cat.4,1,2022-08-31T19:58:27.000Z,,,,not measured,,TRUE
7,HP_Screen,2,imported_HP Trials,6,2,,,,,,,1,,,,,,,,,,,,,,0,,,"""times=;;;;;;;;;;;;;;;;;---values=;;;;;;;;;;;;;;;;;""",hp5.2.flac,,,,,,,,,,,,,,,,,,,,,,,,,choice 2,,,,,,,,,,,,,,,,,,,hp5.2.flac,,,,,yes,,,2022-08-31T20:43:32.000Z,481847,group_4,550712,Memory1/Cat.4,1,2022-08-31T19:58:27.000Z,,,,not measured,,TRUE